MAXM86161reg0x0D,MAXM86161reg0x10,MAXM86161reg0x11,MAXM86161reg0x12,MAXM86161reg0x13,MAXM86161reg0x14,MAXM86161reg0x15,MAXM86161reg0x16,MAXM86161reg0x20,MAXM86161reg0x21,MAXM86161reg0x22,MAXM86161reg0x23,MAXM86161reg0x24,MAXM86161reg0x25,MAXM86161reg0x26,MAXM86161reg0x27,MAXM86161reg0x28,MAXM86161reg0x29,
MAXM86161reg0x2A,MAXM86161reg0x2B,MAXM86161reg0xFE,MAXM86161reg0xFF,KX122reg0x18,KX122reg0x1B,0,0,0,0,RTCpreScale,WallClock_B3,WallClock_B2,WallClock_B1,WallClock_B0,UseAcc,WallClock_B5,WallClock_B4,
0x02,0x00,0x28,0x38,0xc0,0x00,0x11,0x42,0x21,0x03,0x00,0x0a,0x0a,0x0a,0x00,0x00,0x00,0x00,
0x3f,0x00,0x0a,0x36,0x00,0x04,0x00,0x00,0x00,0x00,0x1f,0x97,0xc5,0xfd,0xb0,0x01,0x01,0x72,
start time,1591684234672
expected tags,1,2,3,
timestamp,sampleNum,tagLEDC1,tagLEDC2,tagLEDC3,LEDC1,LEDC2,LEDC3,ACCX,ACCY,ACCZ,temperature,RTC,sensor,regAddr,val,I2Caddr,
1591684234892.119900,1,0,0,0,244.000000,244.000000,532.000000,-26.000000,50.000000,-997.000000,,,,,,,
1591684234912.239700,2,0,0,0,253.000000,254.000000,540.000000,-34.000000,35.000000,-998.000000,,,,,,,
1591684234932.359600,3,0,0,0,268.000000,253.000000,550.000000,28.000000,105.000000,-944.000000,,,,,,,
1591684234952.479500,4,0,0,0,258.000000,257.000000,540.000000,21.000000,104.000000,-937.000000,,,,,,,
1591684234972.599400,5,0,0,0,268.000000,234.000000,514.000000,10.000000,92.000000,-955.000000,,,,,,,
1591684234992.719200,6,0,0,0,262.000000,249.000000,511.000000,-13.000000,34.000000,-998.000000,,,,,,,
1591684235012.839100,7,0,0,0,246.000000,245.000000,527.000000,-27.000000,48.000000,-984.000000,,,,,,,
1591684235032.959000,8,0,0,0,249.000000,241.000000,551.000000,7.000000,85.000000,-949.000000,,,,,,,
1591684235053.078900,9,0,0,0,257.000000,267.000000,564.000000,19.000000,92.000000,-946.000000,,,,,,,
1591684235073.198700,10,0,0,0,270.000000,259.000000,599.000000,-2.000000,67.000000,-968.000000,,,,,,,
1591684235093.318600,11,0,0,0,272.000000,276.000000,621.000000,-24.000000,38.000000,-1003.000000,,,,,,,
1591684235113.438500,12,0,0,0,272.000000,300.000000,661.000000,-23.000000,38.000000,-984.000000,,,,,,,
1591684235133.558300,13,0,0,0,302.000000,323.000000,727.000000,-3.000000,61.000000,-960.000000,,,,,,,
1591684235153.678200,14,0,0,0,312.000000,402.000000,890.000000,16.000000,80.000000,-945.000000,,,,,,,
1591684235173.798100,15,0,0,0,388.000000,493.000000,1072.000000,10.000000,83.000000,-949.000000,,,,,,,
1591684235193.918000,16,0,0,0,409.000000,572.000000,1189.000000,-20.000000,44.000000,-985.000000,,,,,,,
1591684235214.037800,17,0,0,0,431.000000,580.000000,1149.000000,-30.000000,37.000000,-994.000000,,,,,,,
1591684235234.157700,18,0,0,0,397.000000,539.000000,1063.000000,2.000000,86.000000,-947.000000,,,,,,,
1591684235254.277600,19,0,0,0,375.000000,513.000000,1004.000000,28.000000,93.000000,-937.000000,,,,,,,
1591684235274.397500,20,0,0,0,377.000000,535.000000,1075.000000,-17.000000,56.000000,-975.000000,,,,,,,
1591684235294.517300,21,0,0,0,425.000000,633.000000,1226.000000,-34.000000,32.000000,-1005.000000,,,,,,,
1591684235314.637200,22,0,0,0,478.000000,758.000000,1498.000000,-11.000000,66.000000,-974.000000,,,,,,,
1591684235334.757100,23,0,0,0,543.000000,983.000000,1869.000000,7.000000,73.000000,-958.000000,,,,,,,
1591684235354.877000,24,0,0,0,666.000000,1265.000000,2376.000000,18.000000,81.000000,-948.000000,,,,,,,
1591684235374.996800,25,0,0,0,828.000000,1695.000000,3113.000000,99.000000,115.000000,-954.000000,,,,,,,
1591684235395.116700,26,0,0,0,1068.000000,2195.000000,4108.000000,-16.000000,101.000000,-949.000000,,,,,,,
1591684235415.236600,27,0,0,0,1401.000000,3074.000000,5858.000000,-5.000000,102.000000,-1014.000000,,,,,,,
1591684235435.356400,28,0,0,0,2062.000000,4542.000000,8763.000000,34.000000,58.000000,-926.000000,,,,,,,
1591684235455.476300,29,0,0,0,3397.000000,7630.000000,15482.000000,46.000000,110.000000,-878.000000,,,,,,,
1591684235475.596200,30,0,0,0,6818.000000,14037.000000,28613.000000,1080.000000,1643.000000,-1768.000000,0.000000,618,,,,,
1591684235495.559800,31,0,0,0,14171.000000,30388.000000,49662.000000,-591.000000,-199.000000,-1319.000000,,,,,,,
1591684235515.523400,32,0,0,0,25051.000000,48375.000000,82269.000000,-1104.000000,-164.000000,-1184.000000,,,,,,,
1591684235535.487100,33,0,0,0,23423.000000,58949.000000,97883.000000,-40.000000,10.000000,-973.000000,,,,,,,
1591684235555.450700,34,0,0,0,23510.000000,63293.000000,102284.000000,7.000000,26.000000,-955.000000,,,,,,,
1591684235575.414300,35,0,0,0,25060.000000,65718.000000,105292.000000,27.000000,24.000000,-978.000000,,,,,,,
1591684235595.377900,36,0,0,0,26950.000000,68140.000000,107747.000000,20.000000,-19.000000,-1004.000000,,,,,,,
1591684235615.341600,37,0,0,0,28718.000000,71066.000000,110475.000000,25.000000,-36.000000,-1001.000000,,,,,,,
1591684235635.305200,38,0,0,0,30119.000000,74559.000000,113413.000000,54.000000,-11.000000,-971.000000,,,,,,,
1591684235655.268800,39,0,0,0,31233.000000,77006.000000,115273.000000,52.000000,24.000000,-946.000000,,,,,,,
1591684235675.232400,40,0,0,0,32207.000000,78151.000000,116115.000000,13.000000,11.000000,-957.000000,,,,,,,
1591684235695.196000,41,0,0,0,33056.000000,78803.000000,116560.000000,-9.000000,-23.000000,-1010.000000,,,,,,,
1591684235715.159400,42,0,0,0,33704.000000,78944.000000,116474.000000,2.000000,-3.000000,-994.000000,,,,,,,
1591684235735.123000,43,0,0,0,34157.000000,78892.000000,116243.000000,58.000000,21.000000,-958.000000,,,,,,,
1591684235755.086700,44,0,0,0,34567.000000,78781.000000,116085.000000,102.000000,23.000000,-950.000000,,,,,,,
1591684235775.050300,45,0,0,0,34996.000000,78820.000000,116038.000000,135.000000,17.000000,-953.000000,,,,,,,
1591684235795.013900,46,0,0,0,35539.000000,79003.000000,116203.000000,140.000000,4.000000,-968.000000,,,,,,,
1591684235814.977500,47,0,0,0,36135.000000,79320.000000,116428.000000,142.000000,-9.000000,-988.000000,,,,,,,
1591684235834.941200,48,0,0,0,36622.000000,79544.000000,116444.000000,161.000000,-6.000000,-945.000000,,,,,,,
1591684235854.904800,49,0,0,0,37043.000000,79708.000000,116484.000000,177.000000,313.000000,-1021.000000,,,,,,,
1591684235874.868400,50,0,0,0,37406.000000,79845.000000,116733.000000,158.000000,-69.000000,-1105.000000,,,,,,,
1591684235894.832000,51,0,0,0,37744.000000,79982.000000,116823.000000,103.000000,-12.000000,-1016.000000,,,,,,,
1591684235914.795700,52,0,0,0,38055.000000,80163.000000,116895.000000,89.000000,3.000000,-991.000000,,,,,,,
1591684235934.759300,53,0,0,0,38343.000000,80275.000000,116884.000000,111.000000,25.000000,-945.000000,,,,,,,
1591684235954.722900,54,0,0,0,38530.000000,80229.000000,116879.000000,115.000000,40.000000,-937.000000,,,,,,,
1591684235974.686500,55,0,0,0,38756.000000,80239.000000,116876.000000,91.000000,11.000000,-968.000000,,,,,,,
1591684235994.649900,56,0,0,0,38968.000000,80274.000000,116910.000000,72.000000,-15.000000,-991.000000,,,,,,,
1591684236014.613500,57,0,0,0,39205.000000,80350.000000,116929.000000,67.000000,1.000000,-987.000000,,,,,,,
1591684236034.577100,58,0,0,0,39393.000000,80387.000000,116905.000000,84.000000,1.000000,-958.000000,,,,,,,
1591684236054.540800,59,0,0,0,39527.000000,80402.000000,116939.000000,80.000000,25.000000,-952.000000,,,,,,,
1591684236074.504400,60,0,0,0,39717.000000,80422.000000,116905.000000,58.000000,31.000000,-942.000000,,,,,,,
1591684236094.468000,61,0,0,0,39862.000000,80419.000000,116791.000000,3.000000,-11.000000,-982.000000,,,,,,,
1591684236114.431600,62,0,0,0,39958.000000,80306.000000,116731.000000,16.000000,-23.000000,-992.000000,,,,,,,
1591684236134.395300,63,0,0,0,40077.000000,80308.000000,116766.000000,19.000000,12.000000,-937.000000,,,,,,,
1591684236154.358900,64,0,0,0,40268.000000,80309.000000,116852.000000,-29.000000,27.000000,-940.000000,,,,,,,
1591684236174.322500,65,0,0,0,40413.000000,80313.000000,116846.000000,-93.000000,-25.000000,-980.000000,,,,,,,
1591684236194.286100,66,0,0,0,40540.000000,80287.000000,116760.000000,-32.000000,-46.000000,-1025.000000,,,,,,,
1591684236214.249800,67,0,0,0,40604.000000,80203.000000,116596.000000,-1.000000,-12.000000,-986.000000,,,,,,,
1591684236234.213400,68,0,0,0,40675.000000,80141.000000,116554.000000,-27.000000,58.000000,-959.000000,,,,,,,
1591684236254.176800,69,0,0,0,40733.000000,80123.000000,116601.000000,6.000000,32.000000,-949.000000,,,,,,,
1591684236274.140400,70,0,0,0,40793.000000,80171.000000,116685.000000,9.000000,12.000000,-962.000000,,,,,,,
1591684236294.104000,71,0,0,0,40901.000000,80172.000000,116736.000000,-28.000000,-30.000000,-992.000000,,,,,,,
1591684236314.067600,72,0,0,0,40971.000000,80194.000000,116686.000000,-39.000000,-33.000000,-1015.000000,,,,,,,
1591684236334.031200,73,0,0,0,41046.000000,80209.000000,116736.000000,-41.000000,8.000000,-955.000000,,,,,,,
1591684236353.994900,74,0,0,0,41170.000000,80220.000000,116676.000000,3.000000,26.000000,-946.000000,,,,,,,
1591684236373.958500,75,0,0,0,41258.000000,80256.000000,116691.000000,-19.000000,-15.000000,-1003.000000,,,,,,,
1591684236393.922100,76,0,0,0,41334.000000,80227.000000,116690.000000,-41.000000,-32.000000,-1013.000000,,,,,,,
1591684236413.885700,77,0,0,0,41442.000000,80250.000000,116703.000000,-21.000000,-3.000000,-977.000000,,,,,,,
1591684236433.849400,78,0,0,0,41491.000000,80282.000000,116737.000000,2.000000,-1.000000,-965.000000,,,,,,,
1591684236453.813000,79,0,0,0,41652.000000,80350.000000,116759.000000,6.000000,17.000000,-964.000000,,,,,,,
1591684236473.776600,80,0,0,0,41738.000000,80394.000000,116765.000000,-2.000000,8.000000,-968.000000,0.000000,1640,,,,,
1591684236493.759800,81,0,0,0,41852.000000,80422.000000,116814.000000,-24.000000,-24.000000,-999.000000,,,,,,,
1591684236513.742900,82,0,0,0,41954.000000,80457.000000,116802.000000,-19.000000,-30.000000,-1006.000000,,,,,,,
1591684236533.725800,83,0,0,0,42063.000000,80503.000000,116821.000000,17.000000,19.000000,-952.000000,,,,,,,
1591684236553.709000,84,0,0,0,42166.000000,80530.000000,116828.000000,22.000000,23.000000,-938.000000,,,,,,,
1591684236573.692100,85,0,0,0,42248.000000,80552.000000,116879.000000,4.000000,-21.000000,-989.000000,,,,,,,
1591684236593.675300,86,0,0,0,42404.000000,80609.000000,116870.000000,-12.000000,-48.000000,-1020.000000,,,,,,,
1591684236613.658400,87,0,0,0,42530.000000,80645.000000,116907.000000,-7.000000,-1.000000,-1011.000000,,,,,,,
1591684236633.641600,88,0,0,0,42620.000000,80677.000000,116928.000000,10.000000,-9.000000,-979.000000,,,,,,,
1591684236653.624800,89,0,0,0,42738.000000,80724.000000,116960.000000,15.000000,-2.000000,-975.000000,,,,,,,
1591684236673.607900,90,0,0,0,42847.000000,80760.000000,116943.000000,0.000000,-9.000000,-988.000000,,,,,,,
1591684236693.591100,91,0,0,0,42963.000000,80782.000000,116981.000000,-22.000000,-32.000000,-1021.000000,,,,,,,
1591684236713.574200,92,0,0,0,43073.000000,80803.000000,116971.000000,-34.000000,-41.000000,-1034.000000,,,,,,,
1591684236733.557400,93,0,0,0,43131.000000,80798.000000,116987.000000,1.000000,-4.000000,-971.000000,,,,,,,
1591684236753.540500,94,0,0,0,43230.000000,80801.000000,116973.000000,24.000000,39.000000,-965.000000,,,,,,,
1591684236773.523700,95,0,0,0,43308.000000,80798.000000,116955.000000,-26.000000,-28.000000,-1022.000000,,,,,,,
1591684236793.506800,96,0,0,0,43400.000000,80837.000000,116972.000000,-39.000000,-43.000000,-1041.000000,,,,,,,
1591684236813.490000,97,0,0,0,43511.000000,80851.000000,116993.000000,-3.000000,-16.000000,-980.000000,,,,,,,
1591684236833.473100,98,0,0,0,43575.000000,80829.000000,116950.000000,5.000000,-6.000000,-982.000000,,,,,,,
1591684236853.456100,99,0,0,0,43640.000000,80805.000000,116968.000000,15.000000,18.000000,-965.000000,,,,,,,
1591684236873.439200,100,0,0,0,43697.000000,80809.000000,116989.000000,-4.000000,14.000000,-970.000000,,,,,,,
1591684236893.422400,101,0,0,0,43753.000000,80815.000000,116969.000000,-17.000000,-15.000000,-1010.000000,,,,,,,
1591684236913.405500,102,0,0,0,43798.000000,80768.000000,116887.000000,-27.000000,-38.000000,-1005.000000,,,,,,,
1591684236933.388700,103,0,0,0,43840.000000,80709.000000,116877.000000,20.000000,15.000000,-953.000000,,,,,,,
1591684236953.371800,104,0,0,0,43856.000000,80602.000000,116853.000000,15.000000,37.000000,-950.000000,,,,,,,
1591684236973.355000,105,0,0,0,43870.000000,80511.000000,116760.000000,-55.000000,-32.000000,-1032.000000,,,,,,,
1591684236993.338100,106,0,0,0,43849.000000,80512.000000,116788.000000,-39.000000,-36.000000,-1022.000000,,,,,,,
1591684237013.321300,107,0,0,0,43871.000000,80527.000000,116781.000000,6.000000,-5.000000,-957.000000,,,,,,,
1591684237033.304400,108,0,0,0,43880.000000,80499.000000,116742.000000,-1.000000,2.000000,-970.000000,,,,,,,
1591684237053.287600,109,0,0,0,43893.000000,80498.000000,116792.000000,0.000000,6.000000,-945.000000,,,,,,,
1591684237073.270800,110,0,0,0,43963.000000,80552.000000,116771.000000,6.000000,-1.000000,-948.000000,,,,,,,
1591684237093.253900,111,0,0,0,44032.000000,80536.000000,116790.000000,-12.000000,-7.000000,-987.000000,,,,,,,
1591684237113.237100,112,0,0,0,44078.000000,80527.000000,116801.000000,-39.000000,-49.000000,-1029.000000,,,,,,,
1591684237133.220200,113,0,0,0,44078.000000,80499.000000,116755.000000,-23.000000,-14.000000,-1003.000000,,,,,,,
1591684237153.203400,114,0,0,0,44146.000000,80478.000000,116721.000000,17.000000,36.000000,-947.000000,,,,,,,
1591684237173.186300,115,0,0,0,44209.000000,80473.000000,116725.000000,7.000000,-2.000000,-964.000000,,,,,,,
1591684237193.169400,116,0,0,0,44250.000000,80475.000000,116753.000000,-33.000000,-32.000000,-1003.000000,,,,,,,
1591684237213.152600,117,0,0,0,44283.000000,80505.000000,116722.000000,-26.000000,-35.000000,-997.000000,,,,,,,
1591684237233.135700,118,0,0,0,44281.000000,80473.000000,116721.000000,9.000000,1.000000,-950.000000,,,,,,,
1591684237253.118900,119,0,0,0,44329.000000,80507.000000,116720.000000,2.000000,11.000000,-951.000000,,,,,,,
1591684237273.102100,120,0,0,0,44390.000000,80529.000000,116718.000000,-1.000000,4.000000,-984.000000,,,,,,,
1591684237293.085200,121,0,0,0,44430.000000,80543.000000,116757.000000,-22.000000,-22.000000,-1003.000000,,,,,,,
1591684237313.068400,122,0,0,0,44519.000000,80610.000000,116801.000000,-36.000000,-36.000000,-1002.000000,,,,,,,
1591684237333.051500,123,0,0,0,44571.000000,80596.000000,116833.000000,-8.000000,-2.000000,-977.000000,,,,,,,
1591684237353.034700,124,0,0,0,44642.000000,80672.000000,116848.000000,25.000000,24.000000,-941.000000,,,,,,,
1591684237373.017800,125,0,0,0,44709.000000,80677.000000,116864.000000,13.000000,20.000000,-952.000000,,,,,,,
1591684237393.001000,126,0,0,0,44766.000000,80744.000000,116877.000000,-25.000000,-14.000000,-1006.000000,,,,,,,
1591684237412.984100,127,0,0,0,44840.000000,80765.000000,116862.000000,-20.000000,-24.000000,-996.000000,,,,,,,
1591684237432.967300,128,0,0,0,44917.000000,80779.000000,116869.000000,12.000000,16.000000,-949.000000,,,,,,,
1591684237452.950400,129,0,0,0,44941.000000,80734.000000,116868.000000,23.000000,10.000000,-929.000000,,,,,,,
1591684237472.933600,130,0,0,0,45026.000000,80767.000000,116850.000000,9.000000,17.000000,-970.000000,0.000000,2663,,,,,
1591684237492.897000,131,0,0,0,45061.000000,80793.000000,116851.000000,-4.000000,-32.000000,-975.000000,,,,,,,
1591684237512.860600,132,0,0,0,45105.000000,80750.000000,116840.000000,-22.000000,-41.000000,-1007.000000,,,,,,,
1591684237532.824200,133,0,0,0,45160.000000,80776.000000,116835.000000,-20.000000,-9.000000,-998.000000,,,,,,,
1591684237552.787800,134,0,0,0,45207.000000,80792.000000,116801.000000,21.000000,36.000000,-947.000000,,,,,,,
1591684237572.751500,135,0,0,0,45234.000000,80771.000000,116811.000000,12.000000,12.000000,-949.000000,,,,,,,
1591684237592.715100,136,0,0,0,45302.000000,80792.000000,116810.000000,-22.000000,-38.000000,-1011.000000,,,,,,,
1591684237612.678700,137,0,0,0,45344.000000,80790.000000,116791.000000,-19.000000,-23.000000,-995.000000,,,,,,,
1591684237632.642300,138,0,0,0,45384.000000,80714.000000,116722.000000,12.000000,0.000000,-955.000000,,,,,,,
1591684237652.606000,139,0,0,0,45332.000000,80660.000000,116682.000000,8.000000,2.000000,-959.000000,,,,,,,
1591684237672.569600,140,0,0,0,45346.000000,80636.000000,116688.000000,10.000000,6.000000,-965.000000,,,,,,,
1591684237692.533200,141,0,0,0,45318.000000,80595.000000,116659.000000,-20.000000,2.000000,-1000.000000,,,,,,,
1591684237712.496800,142,0,0,0,45300.000000,80615.000000,116652.000000,-24.000000,-44.000000,-1022.000000,,,,,,,
1591684237732.460400,143,0,0,0,45309.000000,80628.000000,116637.000000,-10.000000,-8.000000,-986.000000,,,,,,,
1591684237752.423800,144,0,0,0,45366.000000,80624.000000,116650.000000,37.000000,32.000000,-924.000000,,,,,,,
1591684237772.387500,145,0,0,0,45432.000000,80657.000000,116659.000000,19.000000,18.000000,-949.000000,,,,,,,
1591684237792.351100,146,0,0,0,45457.000000,80687.000000,116665.000000,-19.000000,-38.000000,-1012.000000,,,,,,,
1591684237812.314700,147,0,0,0,45489.000000,80677.000000,116649.000000,-24.000000,-19.000000,-1012.000000,,,,,,,
1591684237832.278300,148,0,0,0,45550.000000,80671.000000,116652.000000,14.000000,12.000000,-972.000000,,,,,,,
1591684237852.241900,149,0,0,0,45584.000000,80680.000000,116647.000000,15.000000,18.000000,-972.000000,,,,,,,
1591684237872.205600,150,0,0,0,45619.000000,80676.000000,116628.000000,13.000000,1.000000,-965.000000,,,,,,,
1591684237892.169200,151,0,0,0,45664.000000,80644.000000,116589.000000,-6.000000,0.000000,-993.000000,,,,,,,
1591684237912.132800,152,0,0,0,45683.000000,80609.000000,116573.000000,-27.000000,-37.000000,-1019.000000,,,,,,,
1591684237932.096400,153,0,0,0,45709.000000,80628.000000,116596.000000,-15.000000,6.000000,-1002.000000,,,,,,,
1591684237952.060100,154,0,0,0,45735.000000,80638.000000,116597.000000,33.000000,29.000000,-940.000000,,,,,,,
1591684237972.023700,155,0,0,0,45747.000000,80610.000000,116600.000000,20.000000,16.000000,-954.000000,,,,,,,
1591684237991.987300,156,0,0,0,45792.000000,80608.000000,116643.000000,-24.000000,-35.000000,-1020.000000,,,,,,,
1591684238011.950900,157,0,0,0,45831.000000,80654.000000,116595.000000,-14.000000,-20.000000,-1009.000000,,,,,,,
1591684238031.914300,158,0,0,0,45858.000000,80642.000000,116619.000000,20.000000,-3.000000,-953.000000,,,,,,,
1591684238051.877900,159,0,0,0,45905.000000,80656.000000,116563.000000,11.000000,10.000000,-963.000000,,,,,,,
1591684238071.841600,160,0,0,0,45936.000000,80665.000000,116625.000000,10.000000,17.000000,-978.000000,,,,,,,
1591684238091.805200,161,0,0,0,45987.000000,80673.000000,116624.000000,-1.000000,4.000000,-983.000000,,,,,,,
1591684238111.768800,162,0,0,0,46047.000000,80679.000000,116581.000000,-28.000000,-40.000000,-1015.000000,,,,,,,
1591684238131.732400,163,0,0,0,46074.000000,80684.000000,116601.000000,-4.000000,-23.000000,-991.000000,,,,,,,
1591684238151.696000,164,0,0,0,46105.000000,80725.000000,116598.000000,27.000000,37.000000,-957.000000,,,,,,,
1591684238171.659700,165,0,0,0,46170.000000,80709.000000,116607.000000,16.000000,20.000000,-958.000000,,,,,,,
1591684238191.623300,166,0,0,0,46196.000000,80679.000000,116564.000000,-32.000000,-24.000000,-1013.000000,,,,,,,
1591684238211.586900,167,0,0,0,46200.000000,80711.000000,116601.000000,-22.000000,-27.000000,-997.000000,,,,,,,
1591684238231.550500,168,0,0,0,46222.000000,80698.000000,116575.000000,0.000000,16.000000,-988.000000,,,,,,,
1591684238251.514200,169,0,0,0,46279.000000,80705.000000,116565.000000,10.000000,18.000000,-958.000000,,,,,,,
1591684238271.477800,170,0,0,0,46320.000000,80693.000000,116561.000000,2.000000,10.000000,-973.000000,,,,,,,
1591684238291.441400,171,0,0,0,46363.000000,80711.000000,116588.000000,2.000000,1.000000,-975.000000,,,,,,,
1591684238311.404800,172,0,0,0,46380.000000,80709.000000,116560.000000,-29.000000,-42.000000,-1018.000000,,,,,,,
1591684238331.368400,173,0,0,0,46382.000000,80672.000000,116563.000000,-23.000000,-19.000000,-1000.000000,,,,,,,
1591684238351.332000,174,0,0,0,46347.000000,80600.000000,116473.000000,35.000000,26.000000,-946.000000,,,,,,,
1591684238371.295700,175,0,0,0,46302.000000,80537.000000,116462.000000,33.000000,22.000000,-955.000000,,,,,,,
1591684238391.259300,176,0,0,0,46173.000000,80497.000000,116439.000000,-26.000000,-35.000000,-1013.000000,,,,,,,
1591684238411.222900,177,0,0,0,46077.000000,80513.000000,116462.000000,-17.000000,-12.000000,-995.000000,,,,,,,
1591684238431.186500,178,0,0,0,46076.000000,80497.000000,116408.000000,16.000000,10.000000,-970.000000,,,,,,,
1591684238451.150100,179,0,0,0,46085.000000,80519.000000,116421.000000,11.000000,18.000000,-959.000000,,,,,,,
1591684238471.113800,180,0,0,0,46077.000000,80547.000000,116416.000000,9.000000,9.000000,-973.000000,0.000000,3685,,,,,
1591684238491.077400,181,0,0,0,46123.000000,80532.000000,116413.000000,0.000000,1.000000,-970.000000,,,,,,,
1591684238511.041000,182,0,0,0,46144.000000,80513.000000,116419.000000,-29.000000,-35.000000,-1022.000000,,,,,,,
1591684238531.004600,183,0,0,0,46149.000000,80498.000000,116457.000000,-25.000000,-27.000000,-1000.000000,,,,,,,
1591684238550.968300,184,0,0,0,46193.000000,80529.000000,116411.000000,29.000000,21.000000,-941.000000,,,,,,,
1591684238570.931600,185,0,0,0,46221.000000,80545.000000,116451.000000,22.000000,16.000000,-957.000000,,,,,,,
1591684238590.895300,186,0,0,0,46223.000000,80530.000000,116422.000000,-29.000000,-32.000000,-1025.000000,,,,,,,
1591684238610.858900,187,0,0,0,46219.000000,80497.000000,116370.000000,-20.000000,-23.000000,-1008.000000,,,,,,,
1591684238630.822500,188,0,0,0,46210.000000,80481.000000,116359.000000,3.000000,10.000000,-977.000000,,,,,,,
1591684238650.786100,189,0,0,0,46232.000000,80519.000000,116383.000000,14.000000,11.000000,-963.000000,,,,,,,
1591684238670.749800,190,0,0,0,46214.000000,80512.000000,116396.000000,9.000000,2.000000,-964.000000,,,,,,,
1591684238690.713400,191,0,0,0,46209.000000,80492.000000,116391.000000,-1.000000,4.000000,-988.000000,,,,,,,
1591684238710.677000,192,0,0,0,46232.000000,80513.000000,116347.000000,-26.000000,-31.000000,-1011.000000,,,,,,,
1591684238730.640600,193,0,0,0,46258.000000,80492.000000,116372.000000,-16.000000,-22.000000,-1003.000000,,,,,,,
1591684238750.604200,194,0,0,0,46276.000000,80503.000000,116342.000000,28.000000,25.000000,-951.000000,,,,,,,
1591684238770.567900,195,0,0,0,46345.000000,80485.000000,116353.000000,25.000000,31.000000,-957.000000,,,,,,,
1591684238790.531500,196,0,0,0,46337.000000,80479.000000,116348.000000,-27.000000,-32.000000,-1024.000000,,,,,,,
1591684238810.495100,197,0,0,0,46378.000000,80500.000000,116335.000000,-16.000000,-25.000000,-1015.000000,,,,,,,
1591684238830.458700,198,0,0,0,46383.000000,80496.000000,116330.000000,6.000000,9.000000,-971.000000,,,,,,,
1591684238850.422100,199,0,0,0,46411.000000,80471.000000,116323.000000,18.000000,17.000000,-969.000000,,,,,,,
1591684238870.385700,200,0,0,0,46411.000000,80458.000000,116318.000000,3.000000,7.000000,-971.000000,,,,,,,
1591684238890.349400,201,0,0,0,46439.000000,80471.000000,116287.000000,-3.000000,0.000000,-965.000000,,,,,,,
1591684238910.313000,202,0,0,0,46464.000000,80446.000000,116327.000000,-30.000000,-27.000000,-1006.000000,,,,,,,
1591684238930.276600,203,0,0,0,46470.000000,80477.000000,116309.000000,-27.000000,-27.000000,-1008.000000,,,,,,,
1591684238950.240200,204,0,0,0,46495.000000,80473.000000,116298.000000,36.000000,22.000000,-958.000000,,,,,,,
1591684238970.203900,205,0,0,0,46534.000000,80464.000000,116286.000000,21.000000,27.000000,-952.000000,,,,,,,
1591684238990.167500,206,0,0,0,46574.000000,80495.000000,116336.000000,-41.000000,-24.000000,-1009.000000,,,,,,,
1591684239010.131100,207,0,0,0,46604.000000,80486.000000,116297.000000,-25.000000,-33.000000,-1005.000000,,,,,,,
1591684239030.094700,208,0,0,0,46581.000000,80477.000000,116267.000000,2.000000,17.000000,-974.000000,,,,,,,
1591684239050.058300,209,0,0,0,46575.000000,80409.000000,116222.000000,4.000000,15.000000,-965.000000,,,,,,,
1591684239070.022000,210,0,0,0,46466.000000,80360.000000,116175.000000,17.000000,7.000000,-975.000000,,,,,,,
1591684239089.985600,211,0,0,0,46336.000000,80289.000000,116125.000000,1.000000,2.000000,-966.000000,,,,,,,
1591684239109.949000,212,0,0,0,46156.000000,80258.000000,116118.000000,-12.000000,-18.000000,-1015.000000,,,,,,,
1591684239129.912600,213,0,0,0,46049.000000,80259.000000,116126.000000,-20.000000,-30.000000,-996.000000,,,,,,,
1591684239149.876200,214,0,0,0,45976.000000,80300.000000,116136.000000,21.000000,26.000000,-943.000000,,,,,,,
1591684239169.839800,215,0,0,0,45947.000000,80267.000000,116121.000000,19.000000,25.000000,-956.000000,,,,,,,
1591684239189.803500,216,0,0,0,45925.000000,80259.000000,116125.000000,-25.000000,-36.000000,-1014.000000,,,,,,,
1591684239209.767100,217,0,0,0,45962.000000,80267.000000,116110.000000,-16.000000,-35.000000,-1011.000000,,,,,,,
1591684239229.730700,218,0,0,0,45951.000000,80282.000000,116111.000000,7.000000,15.000000,-977.000000,,,,,,,
1591684239249.694300,219,0,0,0,45965.000000,80272.000000,116055.000000,8.000000,7.000000,-969.000000,,,,,,,
1591684239269.658000,220,0,0,0,45939.000000,80274.000000,116090.000000,18.000000,7.000000,-974.000000,,,,,,,
1591684239289.621600,221,0,0,0,45976.000000,80294.000000,116099.000000,3.000000,-1.000000,-970.000000,,,,,,,
1591684239309.585200,222,0,0,0,45945.000000,80296.000000,116103.000000,-16.000000,-33.000000,-1011.000000,,,,,,,
1591684239329.548800,223,0,0,0,45940.000000,80264.000000,116086.000000,10.000000,34.000000,-966.000000,,,,,,,
1591684239349.512500,224,0,0,0,45949.000000,80238.000000,116079.000000,27.000000,26.000000,-942.000000,,,,,,,
1591684239369.476100,225,0,0,0,45931.000000,80266.000000,116059.000000,-4.000000,-11.000000,-979.000000,,,,,,,
1591684239389.439500,226,0,0,0,45933.000000,80280.000000,116056.000000,-28.000000,-44.000000,-1017.000000,,,,,,,
1591684239409.403100,227,0,0,0,45940.000000,80278.000000,116090.000000,-22.000000,-27.000000,-1000.000000,,,,,,,
1591684239429.366700,228,0,0,0,45949.000000,80301.000000,116083.000000,4.000000,14.000000,-958.000000,,,,,,,
1591684239449.330300,229,0,0,0,45981.000000,80282.000000,116104.000000,11.000000,1.000000,-976.000000,,,,,,,
1591684239469.293900,230,0,0,0,46026.000000,80315.000000,116098.000000,18.000000,17.000000,-964.000000,0.000000,4707,,,,,
1591684239489.257600,231,0,0,0,46065.000000,80331.000000,116078.000000,16.000000,9.000000,-979.000000,,,,,,,
1591684239509.221200,232,0,0,0,46073.000000,80340.000000,116101.000000,-9.000000,-28.000000,-1019.000000,,,,,,,
1591684239529.184800,233,0,0,0,46110.000000,80340.000000,116107.000000,-35.000000,-43.000000,-1020.000000,,,,,,,
1591684239549.148400,234,0,0,0,46145.000000,80337.000000,116106.000000,32.000000,31.000000,-948.000000,,,,,,,
1591684239569.112100,235,0,0,0,46179.000000,80326.000000,116100.000000,6.000000,-5.000000,-983.000000,,,,,,,
1591684239589.075700,236,0,0,0,46211.000000,80331.000000,116090.000000,-20.000000,-35.000000,-1026.000000,,,,,,,
1591684239609.039300,237,0,0,0,46235.000000,80335.000000,116120.000000,4.000000,-21.000000,-998.000000,,,,,,,
1591684239629.002900,238,0,0,0,46280.000000,80353.000000,116162.000000,8.000000,4.000000,-961.000000,,,,,,,
1591684239648.966300,239,0,0,0,46315.000000,80402.000000,116141.000000,23.000000,25.000000,-957.000000,,,,,,,
1591684239668.929900,240,0,0,0,46345.000000,80368.000000,116113.000000,22.000000,22.000000,-958.000000,,,,,,,
1591684239688.893600,241,0,0,0,46387.000000,80387.000000,116108.000000,-20.000000,-23.000000,-990.000000,,,,,,,
1591684239708.857200,242,0,0,0,46411.000000,80361.000000,116097.000000,-14.000000,-19.000000,-1014.000000,,,,,,,
1591684239728.820800,243,0,0,0,46425.000000,80367.000000,116104.000000,24.000000,13.000000,-972.000000,,,,,,,
1591684239748.784400,244,0,0,0,46454.000000,80343.000000,116073.000000,26.000000,11.000000,-959.000000,,,,,,,
1591684239768.748000,245,0,0,0,46443.000000,80285.000000,116001.000000,3.000000,21.000000,-976.000000,,,,,,,
1591684239788.711700,246,0,0,0,46311.000000,80231.000000,116026.000000,-9.000000,-22.000000,-1011.000000,,,,,,,
1591684239808.675300,247,0,0,0,46118.000000,80168.000000,115963.000000,-21.000000,-30.000000,-1012.000000,,,,,,,
1591684239828.638900,248,0,0,0,45938.000000,80105.000000,115943.000000,-4.000000,-13.000000,-990.000000,,,,,,,
1591684239848.602500,249,0,0,0,45799.000000,80076.000000,115933.000000,32.000000,46.000000,-937.000000,,,,,,,
1591684239868.566200,250,0,0,0,45712.000000,80087.000000,115945.000000,12.000000,11.000000,-965.000000,,,,,,,
1591684239888.529800,251,0,0,0,45677.000000,80102.000000,115944.000000,-29.000000,-11.000000,-1014.000000,,,,,,,
1591684239908.493400,252,0,0,0,45650.000000,80050.000000,115925.000000,-13.000000,-26.000000,-994.000000,,,,,,,
1591684239928.456800,253,0,0,0,45622.000000,80007.000000,115870.000000,-4.000000,2.000000,-968.000000,,,,,,,
1591684239948.420400,254,0,0,0,45595.000000,80045.000000,115843.000000,10.000000,9.000000,-965.000000,,,,,,,
1591684239968.384000,255,0,0,0,45595.000000,79999.000000,115843.000000,4.000000,7.000000,-972.000000,,,,,,,
1591684239988.347700,256,0,0,0,45575.000000,80002.000000,115844.000000,-19.000000,-3.000000,-974.000000,,,,,,,
1591684240008.311300,257,0,0,0,45538.000000,79991.000000,115806.000000,-40.000000,-43.000000,-1019.000000,,,,,,,
1591684240028.274900,258,0,0,0,45516.000000,79964.000000,115824.000000,-19.000000,-15.000000,-1002.000000,,,,,,,
1591684240048.238500,259,0,0,0,45464.000000,79946.000000,115802.000000,35.000000,21.000000,-947.000000,,,,,,,
1591684240068.202100,260,0,0,0,45384.000000,79942.000000,115749.000000,9.000000,26.000000,-938.000000,,,,,,,
1591684240088.165800,261,0,0,0,45320.000000,79897.000000,115738.000000,-26.000000,-36.000000,-1017.000000,,,,,,,
1591684240108.129400,262,0,0,0,45295.000000,79903.000000,115747.000000,-28.000000,-22.000000,-1005.000000,,,,,,,
1591684240128.093000,263,0,0,0,45274.000000,79907.000000,115749.000000,8.000000,10.000000,-969.000000,,,,,,,
1591684240148.056600,264,0,0,0,45276.000000,79928.000000,115750.000000,0.000000,17.000000,-973.000000,,,,,,,
1591684240168.020300,265,0,0,0,45303.000000,79955.000000,115746.000000,7.000000,13.000000,-979.000000,,,,,,,
1591684240187.983900,266,0,0,0,45323.000000,79982.000000,115737.000000,-2.000000,3.000000,-965.000000,,,,,,,
1591684240207.947300,267,0,0,0,45357.000000,79961.000000,115717.000000,-25.000000,-35.000000,-1021.000000,,,,,,,
1591684240227.910900,268,0,0,0,45376.000000,79968.000000,115775.000000,-35.000000,-48.000000,-1017.000000,,,,,,,
1591684240247.874500,269,0,0,0,45439.000000,80015.000000,115774.000000,16.000000,13.000000,-929.000000,,,,,,,
1591684240267.838100,270,0,0,0,45467.000000,80006.000000,115782.000000,33.000000,25.000000,-946.000000,,,,,,,
1591684240287.801800,271,0,0,0,45482.000000,80010.000000,115775.000000,-27.000000,-40.000000,-1027.000000,,,,,,,
1591684240307.765400,272,0,0,0,45522.000000,80012.000000,115798.000000,-24.000000,-33.000000,-1017.000000,,,,,,,
1591684240327.729000,273,0,0,0,45560.000000,80036.000000,115771.000000,-4.000000,5.000000,-963.000000,,,,,,,
1591684240347.692600,274,0,0,0,45587.000000,80021.000000,115751.000000,3.000000,8.000000,-962.000000,,,,,,,
1591684240367.656200,275,0,0,0,45626.000000,80027.000000,115752.000000,10.000000,17.000000,-954.000000,,,,,,,
1591684240387.619900,276,0,0,0,45659.000000,80042.000000,115756.000000,-24.000000,-21.000000,-1007.000000,,,,,,,
1591684240407.583500,277,0,0,0,45704.000000,80017.000000,115763.000000,-19.000000,-23.000000,-1001.000000,,,,,,,
1591684240427.547100,278,0,0,0,45709.000000,80007.000000,115748.000000,0.000000,0.000000,-974.000000,,,,,,,
1591684240447.510700,279,0,0,0,45669.000000,79957.000000,115690.000000,11.000000,5.000000,-947.000000,,,,,,,
1591684240467.474100,280,0,0,0,45533.000000,79853.000000,115609.000000,-6.000000,5.000000,-965.000000,0.000000,5729,,,,,
1591684240487.437700,281,0,0,0,45319.000000,79795.000000,115589.000000,-13.000000,-8.000000,-1000.000000,,,,,,,
1591684240507.401400,282,0,0,0,45042.000000,79723.000000,115499.000000,-33.000000,-47.000000,-1039.000000,,,,,,,
1591684240527.365000,283,0,0,0,44890.000000,79715.000000,115514.000000,-13.000000,-5.000000,-986.000000,,,,,,,
1591684240547.328600,284,0,0,0,44769.000000,79687.000000,115521.000000,33.000000,24.000000,-946.000000,,,,,,,
1591684240567.292200,285,0,0,0,44720.000000,79718.000000,115516.000000,12.000000,7.000000,-958.000000,,,,,,,
1591684240587.255900,286,0,0,0,44695.000000,79697.000000,115477.000000,-40.000000,-44.000000,-1004.000000,,,,,,,
1591684240607.219500,287,0,0,0,44682.000000,79696.000000,115477.000000,-20.000000,-26.000000,-1014.000000,,,,,,,
1591684240627.183100,288,0,0,0,44710.000000,79698.000000,115507.000000,10.000000,12.000000,-977.000000,,,,,,,
1591684240647.146700,289,0,0,0,44712.000000,79708.000000,115545.000000,16.000000,13.000000,-958.000000,,,,,,,
1591684240667.110400,290,0,0,0,44733.000000,79729.000000,115533.000000,6.000000,9.000000,-966.000000,,,,,,,
1591684240687.074000,291,0,0,0,44734.000000,79724.000000,115486.000000,3.000000,-4.000000,-974.000000,,,,,,,
1591684240707.037600,292,0,0,0,44682.000000,79661.000000,115464.000000,-33.000000,-31.000000,-1004.000000,,,,,,,
1591684240727.001200,293,0,0,0,44648.000000,79651.000000,115485.000000,-41.000000,-35.000000,-1024.000000,,,,,,,
1591684240746.964600,294,0,0,0,44608.000000,79662.000000,115480.000000,8.000000,37.000000,-945.000000,,,,,,,
1591684240766.928200,295,0,0,0,44574.000000,79634.000000,115501.000000,15.000000,30.000000,-938.000000,,,,,,,
1591684240786.891800,296,0,0,0,44544.000000,79655.000000,115433.000000,-35.000000,-46.000000,-1019.000000,,,,,,,
1591684240806.855500,297,0,0,0,44520.000000,79607.000000,115416.000000,-37.000000,-35.000000,-1022.000000,,,,,,,
1591684240826.819100,298,0,0,0,44524.000000,79619.000000,115434.000000,-15.000000,-8.000000,-965.000000,,,,,,,
1591684240846.782700,299,0,0,0,44528.000000,79623.000000,115464.000000,4.000000,14.000000,-982.000000,,,,,,,
1591684240866.746300,300,0,0,0,44564.000000,79644.000000,115457.000000,13.000000,6.000000,-965.000000,,,,,,,
1591684240886.710000,301,0,0,0,44582.000000,79638.000000,115439.000000,10.000000,5.000000,-971.000000,,,,,,,
1591684240906.673600,302,0,0,0,44637.000000,79664.000000,115440.000000,-16.000000,-18.000000,-1008.000000,,,,,,,
1591684240926.637200,303,0,0,0,44661.000000,79642.000000,115473.000000,8.000000,15.000000,-981.000000,,,,,,,
1591684240946.600800,304,0,0,0,44694.000000,79667.000000,115463.000000,24.000000,13.000000,-964.000000,,,,,,,
1591684240966.564500,305,0,0,0,44708.000000,79668.000000,115470.000000,10.000000,13.000000,-976.000000,,,,,,,
1591684240986.528100,306,0,0,0,44755.000000,79684.000000,115454.000000,-1.000000,0.000000,-997.000000,,,,,,,
1591684241006.491500,307,0,0,0,44806.000000,79688.000000,115472.000000,-29.000000,-52.000000,-1030.000000,,,,,,,
1591684241026.455100,308,0,0,0,44806.000000,79678.000000,115467.000000,-19.000000,-31.000000,-1008.000000,,,,,,,
1591684241046.418700,309,0,0,0,44809.000000,79681.000000,115421.000000,29.000000,18.000000,-947.000000,,,,,,,
1591684241066.382300,310,0,0,0,44867.000000,79697.000000,115463.000000,26.000000,26.000000,-963.000000,,,,,,,
1591684241086.345900,311,0,0,0,44907.000000,79733.000000,115454.000000,-31.000000,-40.000000,-1017.000000,,,,,,,
1591684241106.309600,312,0,0,0,44922.000000,79719.000000,115430.000000,-21.000000,-34.000000,-1013.000000,,,,,,,
1591684241126.273200,313,0,0,0,44929.000000,79713.000000,115416.000000,-5.000000,9.000000,-968.000000,,,,,,,
1591684241146.236800,314,0,0,0,44795.000000,79602.000000,115392.000000,4.000000,5.000000,-962.000000,,,,,,,
1591684241166.200400,315,0,0,0,44524.000000,79485.000000,115342.000000,8.000000,15.000000,-957.000000,,,,,,,
1591684241186.164100,316,0,0,0,44279.000000,79438.000000,115307.000000,2.000000,8.000000,-965.000000,,,,,,,
1591684241206.127700,317,0,0,0,44103.000000,79448.000000,115289.000000,-27.000000,-24.000000,-999.000000,,,,,,,
1591684241226.091300,318,0,0,0,44003.000000,79450.000000,115319.000000,-34.000000,-39.000000,-1016.000000,,,,,,,
1591684241246.054900,319,0,0,0,43991.000000,79477.000000,115346.000000,27.000000,16.000000,-962.000000,,,,,,,
1591684241266.018600,320,0,0,0,43996.000000,79449.000000,115341.000000,20.000000,28.000000,-938.000000,,,,,,,
1591684241285.981900,321,0,0,0,44050.000000,79459.000000,115332.000000,-20.000000,-25.000000,-1003.000000,,,,,,,
1591684241305.945600,322,0,0,0,44056.000000,79451.000000,115314.000000,-31.000000,-44.000000,-1033.000000,,,,,,,
1591684241325.909200,323,0,0,0,44064.000000,79481.000000,115312.000000,-18.000000,-11.000000,-982.000000,,,,,,,
1591684241345.872800,324,0,0,0,44124.000000,79483.000000,115337.000000,30.000000,23.000000,-950.000000,,,,,,,
1591684241365.836400,325,0,0,0,44149.000000,79472.000000,115345.000000,11.000000,20.000000,-964.000000,,,,,,,
1591684241385.800000,326,0,0,0,44139.000000,79492.000000,115342.000000,-27.000000,-26.000000,-1017.000000,,,,,,,
1591684241405.763700,327,0,0,0,44180.000000,79476.000000,115329.000000,-31.000000,-21.000000,-989.000000,,,,,,,
1591684241425.727300,328,0,0,0,44143.000000,79458.000000,115349.000000,2.000000,6.000000,-958.000000,,,,,,,
1591684241445.690900,329,0,0,0,44130.000000,79452.000000,115288.000000,-2.000000,5.000000,-969.000000,,,,,,,
1591684241465.654500,330,0,0,0,44114.000000,79415.000000,115312.000000,-4.000000,13.000000,-958.000000,0.000000,6751,,,,,
1591684241485.618200,331,0,0,0,44118.000000,79455.000000,115327.000000,7.000000,6.000000,-979.000000,,,,,,,
1591684241505.581800,332,0,0,0,44141.000000,79455.000000,115289.000000,-41.000000,-26.000000,-1008.000000,,,,,,,
1591684241525.545400,333,0,0,0,44187.000000,79457.000000,115287.000000,-40.000000,-34.000000,-1021.000000,,,,,,,
1591684241545.508800,334,0,0,0,44212.000000,79450.000000,115306.000000,20.000000,21.000000,-943.000000,,,,,,,
1591684241565.472400,335,0,0,0,44276.000000,79485.000000,115305.000000,25.000000,31.000000,-946.000000,,,,,,,
1591684241585.436000,336,0,0,0,44325.000000,79473.000000,115281.000000,-33.000000,-26.000000,-1007.000000,,,,,,,
1591684241605.399700,337,0,0,0,44355.000000,79492.000000,115295.000000,-34.000000,-41.000000,-1020.000000,,,,,,,
1591684241625.363300,338,0,0,0,44413.000000,79496.000000,115297.000000,-12.000000,0.000000,-981.000000,,,,,,,
1591684241645.326900,339,0,0,0,44431.000000,79482.000000,115334.000000,6.000000,11.000000,-972.000000,,,,,,,
1591684241665.290500,340,0,0,0,44492.000000,79519.000000,115330.000000,14.000000,11.000000,-958.000000,,,,,,,
1591684241685.254200,341,0,0,0,44517.000000,79526.000000,115287.000000,3.000000,8.000000,-965.000000,,,,,,,
1591684241705.217800,342,0,0,0,44547.000000,79506.000000,115322.000000,-17.000000,-20.000000,-991.000000,,,,,,,
1591684241725.181400,343,0,0,0,44594.000000,79510.000000,115350.000000,-28.000000,-19.000000,-1024.000000,,,,,,,
1591684241745.145000,344,0,0,0,44624.000000,79514.000000,115314.000000,7.000000,12.000000,-966.000000,,,,,,,
1591684241765.108600,345,0,0,0,44663.000000,79545.000000,115352.000000,16.000000,21.000000,-960.000000,,,,,,,
1591684241785.072300,346,0,0,0,44684.000000,79559.000000,115344.000000,-11.000000,-14.000000,-989.000000,,,,,,,
1591684241805.035900,347,0,0,0,44745.000000,79553.000000,115322.000000,-24.000000,-39.000000,-1023.000000,,,,,,,
1591684241824.999300,348,0,0,0,44641.000000,79455.000000,115264.000000,-10.000000,-14.000000,-1001.000000,,,,,,,
1591684241844.962900,349,0,0,0,44460.000000,79362.000000,115200.000000,21.000000,31.000000,-942.000000,,,,,,,
1591684241864.926500,350,0,0,0,44205.000000,79268.000000,115175.000000,16.000000,19.000000,-954.000000,,,,,,,
1591684241884.890100,351,0,0,0,43974.000000,79235.000000,115149.000000,-26.000000,-38.000000,-1011.000000,,,,,,,
1591684241904.853800,352,0,0,0,43816.000000,79196.000000,115118.000000,-19.000000,-24.000000,-1006.000000,,,,,,,
1591684241924.817400,353,0,0,0,43776.000000,79219.000000,115152.000000,6.000000,7.000000,-980.000000,,,,,,,
1591684241944.781000,354,0,0,0,43770.000000,79195.000000,115172.000000,7.000000,6.000000,-969.000000,,,,,,,
1591684241964.744600,355,0,0,0,43765.000000,79199.000000,115141.000000,4.000000,12.000000,-944.000000,,,,,,,
1591684241984.708300,356,0,0,0,43799.000000,79218.000000,115177.000000,9.000000,4.000000,-978.000000,,,,,,,
1591684242004.671900,357,0,0,0,43818.000000,79235.000000,115180.000000,-25.000000,-39.000000,-1012.000000,,,,,,,
1591684242024.635500,358,0,0,0,43847.000000,79182.000000,115109.000000,-47.000000,-37.000000,-1031.000000,,,,,,,
1591684242044.599100,359,0,0,0,43824.000000,79164.000000,115073.000000,24.000000,29.000000,-952.000000,,,,,,,
1591684242064.562700,360,0,0,0,43783.000000,79111.000000,115064.000000,17.000000,25.000000,-939.000000,,,,,,,
1591684242084.526400,361,0,0,0,43730.000000,79083.000000,115062.000000,-21.000000,-43.000000,-1015.000000,,,,,,,
1591684242104.489700,362,0,0,0,43658.000000,79058.000000,115044.000000,-26.000000,-42.000000,-1024.000000,,,,,,,
1591684242124.453400,363,0,0,0,43581.000000,79001.000000,114967.000000,-8.000000,-10.000000,-973.000000,,,,,,,
1591684242144.417000,364,0,0,0,43493.000000,78965.000000,114938.000000,3.000000,0.000000,-979.000000,,,,,,,
1591684242164.380600,365,0,0,0,43459.000000,78959.000000,114968.000000,12.000000,17.000000,-966.000000,,,,,,,
1591684242184.344200,366,0,0,0,43440.000000,78974.000000,114964.000000,-1.000000,17.000000,-955.000000,,,,,,,
1591684242204.307900,367,0,0,0,43485.000000,79004.000000,114950.000000,-21.000000,-18.000000,-996.000000,,,,,,,
1591684242224.271500,368,0,0,0,43512.000000,79038.000000,115018.000000,-37.000000,-37.000000,-1003.000000,,,,,,,
1591684242244.235100,369,0,0,0,43554.000000,79052.000000,115025.000000,11.000000,18.000000,-939.000000,,,,,,,
1591684242264.198700,370,0,0,0,43608.000000,79088.000000,115028.000000,14.000000,24.000000,-942.000000,,,,,,,
1591684242284.162400,371,0,0,0,43651.000000,79102.000000,115020.000000,1.000000,-7.000000,-987.000000,,,,,,,
1591684242304.126000,372,0,0,0,43690.000000,79090.000000,115061.000000,-23.000000,-20.000000,-1007.000000,,,,,,,
1591684242324.089600,373,0,0,0,43727.000000,79083.000000,115047.000000,-20.000000,-28.000000,-1009.000000,,,,,,,
1591684242344.053200,374,0,0,0,43749.000000,79086.000000,115051.000000,27.000000,22.000000,-952.000000,,,,,,,
1591684242364.016600,375,0,0,0,43783.000000,79099.000000,115045.000000,26.000000,28.000000,-957.000000,,,,,,,
1591684242383.980200,376,0,0,0,43821.000000,79126.000000,115034.000000,-40.000000,-42.000000,-1026.000000,,,,,,,
1591684242403.943800,377,0,0,0,43850.000000,79132.000000,115041.000000,-32.000000,-28.000000,-1008.000000,,,,,,,
1591684242423.907500,378,0,0,0,43870.000000,79119.000000,115031.000000,7.000000,5.000000,-961.000000,,,,,,,
1591684242443.871100,379,0,0,0,43897.000000,79115.000000,115014.000000,0.000000,6.000000,-975.000000,,,,,,,
1591684242463.834700,380,0,0,0,43941.000000,79123.000000,115006.000000,7.000000,11.000000,-956.000000,0.000000,7773,,,,,
1591684242483.817900,381,0,0,0,43880.000000,79071.000000,114946.000000,-4.000000,10.000000,-956.000000,,,,,,,
1591684242503.801000,382,0,0,0,43729.000000,78988.000000,114932.000000,-25.000000,-16.000000,-1006.000000,,,,,,,
1591684242523.784200,383,0,0,0,43499.000000,78950.000000,114904.000000,-38.000000,-35.000000,-1013.000000,,,,,,,
1591684242543.767300,384,0,0,0,43289.000000,78898.000000,114911.000000,9.000000,16.000000,-953.000000,,,,,,,
1591684242563.750500,385,0,0,0,43153.000000,78875.000000,114844.000000,16.000000,18.000000,-953.000000,,,,,,,
1591684242583.733600,386,0,0,0,43148.000000,78885.000000,114892.000000,-15.000000,0.000000,-999.000000,,,,,,,
1591684242603.716800,387,0,0,0,43150.000000,78923.000000,114880.000000,-42.000000,-31.000000,-1017.000000,,,,,,,
1591684242623.700000,388,0,0,0,43175.000000,78901.000000,114873.000000,-22.000000,-8.000000,-1000.000000,,,,,,,
1591684242643.683100,389,0,0,0,43212.000000,78894.000000,114888.000000,-15.000000,-7.000000,-961.000000,,,,,,,
1591684242663.666000,390,0,0,0,43241.000000,78924.000000,114894.000000,14.000000,24.000000,-948.000000,,,,,,,
1591684242683.649200,391,0,0,0,43312.000000,78954.000000,114912.000000,3.000000,11.000000,-970.000000,,,,,,,
1591684242703.632300,392,0,0,0,43374.000000,79023.000000,114937.000000,-26.000000,-33.000000,-1018.000000,,,,,,,
1591684242723.615500,393,0,0,0,43398.000000,78996.000000,114935.000000,-4.000000,9.000000,-972.000000,,,,,,,
1591684242743.598600,394,0,0,0,43402.000000,78999.000000,114938.000000,2.000000,-2.000000,-978.000000,,,,,,,
1591684242763.581800,395,0,0,0,43425.000000,78997.000000,114964.000000,10.000000,12.000000,-957.000000,,,,,,,
1591684242783.564900,396,0,0,0,43433.000000,78999.000000,114946.000000,-2.000000,10.000000,-970.000000,,,,,,,
1591684242803.548100,397,0,0,0,43400.000000,79009.000000,114945.000000,-26.000000,-15.000000,-1014.000000,,,,,,,
1591684242823.531200,398,0,0,0,43428.000000,79012.000000,114948.000000,-37.000000,-27.000000,-1011.000000,,,,,,,
1591684242843.514400,399,0,0,0,43477.000000,79051.000000,114948.000000,12.000000,10.000000,-964.000000,,,,,,,
1591684242863.497600,400,0,0,0,43551.000000,79023.000000,114958.000000,34.000000,23.000000,-959.000000,,,,,,,
1591684242883.480700,401,0,0,0,43635.000000,79090.000000,114991.000000,-18.000000,-12.000000,-996.000000,,,,,,,
1591684242903.463900,402,0,0,0,43671.000000,79115.000000,115068.000000,-41.000000,-43.000000,-1028.000000,,,,,,,
1591684242923.447000,403,0,0,0,43784.000000,79116.000000,115044.000000,-21.000000,-13.000000,-995.000000,,,,,,,
1591684242943.430200,404,0,0,0,43809.000000,79135.000000,115087.000000,-7.000000,6.000000,-961.000000,,,,,,,
1591684242963.413300,405,0,0,0,43912.000000,79146.000000,115054.000000,19.000000,20.000000,-950.000000,,,,,,,
1591684242983.396200,406,0,0,0,43988.000000,79169.000000,115045.000000,9.000000,18.000000,-962.000000,,,,,,,
1591684243003.379400,407,0,0,0,44017.000000,79215.000000,115066.000000,-27.000000,-34.000000,-1024.000000,,,,,,,
1591684243023.362500,408,0,0,0,44082.000000,79183.000000,115000.000000,0.000000,-5.000000,-978.000000,,,,,,,
1591684243043.345700,409,0,0,0,44122.000000,79221.000000,115056.000000,3.000000,15.000000,-978.000000,,,,,,,
1591684243063.328900,410,0,0,0,44180.000000,79200.000000,115059.000000,12.000000,25.000000,-960.000000,,,,,,,
1591684243083.312000,411,0,0,0,44223.000000,79246.000000,115091.000000,0.000000,13.000000,-965.000000,,,,,,,
1591684243103.295200,412,0,0,0,44297.000000,79212.000000,115078.000000,-28.000000,-23.000000,-995.000000,,,,,,,
1591684243123.278300,413,0,0,0,44328.000000,79230.000000,115045.000000,-32.000000,-31.000000,-1024.000000,,,,,,,
1591684243143.261500,414,0,0,0,44328.000000,79188.000000,115029.000000,21.000000,14.000000,-963.000000,,,,,,,
1591684243163.244600,415,0,0,0,44239.000000,79102.000000,114959.000000,20.000000,28.000000,-951.000000,,,,,,,
1591684243183.227800,416,0,0,0,43967.000000,78966.000000,114822.000000,-21.000000,-27.000000,-1002.000000,,,,,,,
1591684243203.210900,417,0,0,0,43633.000000,78809.000000,114708.000000,-28.000000,-34.000000,-1022.000000,,,,,,,
1591684243223.194100,418,0,0,0,43341.000000,78735.000000,114697.000000,-8.000000,-1.000000,-999.000000,,,,,,,
1591684243243.177200,419,0,0,0,43203.000000,78729.000000,114683.000000,-2.000000,0.000000,-983.000000,,,,,,,
1591684243263.160400,420,0,0,0,43118.000000,78716.000000,114717.000000,20.000000,21.000000,-969.000000,,,,,,,
1591684243283.143600,421,0,0,0,43075.000000,78694.000000,114686.000000,-1.000000,20.000000,-966.000000,,,,,,,
1591684243303.126500,422,0,0,0,43090.000000,78699.000000,114707.000000,-33.000000,-26.000000,-1015.000000,,,,,,,
1591684243323.109600,423,0,0,0,43099.000000,78723.000000,114722.000000,-26.000000,-29.000000,-1002.000000,,,,,,,
1591684243343.092800,424,0,0,0,43129.000000,78723.000000,114731.000000,2.000000,0.000000,-985.000000,,,,,,,
1591684243363.075900,425,0,0,0,43128.000000,78747.000000,114756.000000,12.000000,14.000000,-951.000000,,,,,,,
1591684243383.059100,426,0,0,0,43175.000000,78763.000000,114768.000000,6.000000,4.000000,-986.000000,,,,,,,
1591684243403.042200,427,0,0,0,43171.000000,78768.000000,114723.000000,-22.000000,-15.000000,-995.000000,,,,,,,
1591684243423.025400,428,0,0,0,43197.000000,78756.000000,114697.000000,-28.000000,-14.000000,-1022.000000,,,,,,,
1591684243443.008500,429,0,0,0,43141.000000,78732.000000,114730.000000,8.000000,28.000000,-958.000000,,,,,,,
1591684243462.991700,430,0,0,0,43147.000000,78762.000000,114717.000000,15.000000,15.000000,-928.000000,0.000000,8796,,,,,
1591684243482.955300,431,0,0,0,43150.000000,78750.000000,114687.000000,-13.000000,-13.000000,-982.000000,,,,,,,
1591684243502.918900,432,0,0,0,43183.000000,78803.000000,114759.000000,-39.000000,-35.000000,-1031.000000,,,,,,,
1591684243522.882600,433,0,0,0,43223.000000,78843.000000,114758.000000,-30.000000,-24.000000,-1013.000000,,,,,,,
1591684243542.846200,434,0,0,0,43268.000000,78773.000000,114730.000000,-17.000000,2.000000,-976.000000,,,,,,,
1591684243562.809800,435,0,0,0,43290.000000,78748.000000,114729.000000,22.000000,26.000000,-949.000000,,,,,,,
1591684243582.773400,436,0,0,0,43289.000000,78715.000000,114705.000000,2.000000,8.000000,-964.000000,,,,,,,
1591684243602.736800,437,0,0,0,43220.000000,78718.000000,114643.000000,-41.000000,-40.000000,-1017.000000,,,,,,,
1591684243622.700400,438,0,0,0,43264.000000,78649.000000,114604.000000,6.000000,14.000000,-973.000000,,,,,,,
1591684243642.664100,439,0,0,0,43254.000000,78648.000000,114609.000000,-1.000000,8.000000,-966.000000,,,,,,,
1591684243662.627700,440,0,0,0,43264.000000,78619.000000,114608.000000,0.000000,12.000000,-952.000000,,,,,,,
1591684243682.591300,441,0,0,0,43259.000000,78606.000000,114575.000000,-6.000000,2.000000,-968.000000,,,,,,,
1591684243702.554900,442,0,0,0,43252.000000,78603.000000,114553.000000,-28.000000,-8.000000,-1014.000000,,,,,,,
1591684243722.518600,443,0,0,0,43252.000000,78624.000000,114585.000000,-43.000000,-35.000000,-1014.000000,,,,,,,
1591684243742.482200,444,0,0,0,43285.000000,78629.000000,114629.000000,8.000000,10.000000,-975.000000,,,,,,,
1591684243762.445800,445,0,0,0,43340.000000,78638.000000,114638.000000,18.000000,39.000000,-932.000000,,,,,,,
1591684243782.409400,446,0,0,0,43388.000000,78675.000000,114654.000000,-13.000000,-5.000000,-984.000000,,,,,,,
1591684243802.373000,447,0,0,0,43413.000000,78707.000000,114607.000000,-31.000000,-33.000000,-1031.000000,,,,,,,
1591684243822.336700,448,0,0,0,43494.000000,78713.000000,114665.000000,-20.000000,-22.000000,-1007.000000,,,,,,,
1591684243842.300300,449,0,0,0,43444.000000,78705.000000,114625.000000,-6.000000,-4.000000,-970.000000,,,,,,,
1591684243862.263700,450,0,0,0,43291.000000,78619.000000,114575.000000,8.000000,25.000000,-938.000000,,,,,,,
1591684243882.227300,451,0,0,0,43017.000000,78539.000000,114587.000000,0.000000,10.000000,-964.000000,,,,,,,
1591684243902.190900,452,0,0,0,42785.000000,78515.000000,114551.000000,-38.000000,-38.000000,-1000.000000,,,,,,,
1591684243922.154500,453,0,0,0,42605.000000,78493.000000,114545.000000,-27.000000,-20.000000,-994.000000,,,,,,,
1591684243942.118200,454,0,0,0,42535.000000,78457.000000,114524.000000,-6.000000,5.000000,-968.000000,,,,,,,
1591684243962.081800,455,0,0,0,42561.000000,78499.000000,114552.000000,20.000000,21.000000,-972.000000,,,,,,,
1591684243982.045400,456,0,0,0,42583.000000,78488.000000,114535.000000,1.000000,12.000000,-969.000000,,,,,,,
1591684244002.009000,457,0,0,0,42642.000000,78523.000000,114522.000000,-7.000000,3.000000,-979.000000,,,,,,,
1591684244021.972700,458,0,0,0,42678.000000,78567.000000,114593.000000,-33.000000,-27.000000,-1023.000000,,,,,,,
1591684244041.936300,459,0,0,0,42741.000000,78592.000000,114584.000000,12.000000,28.000000,-968.000000,,,,,,,
1591684244061.899900,460,0,0,0,42807.000000,78624.000000,114585.000000,17.000000,28.000000,-947.000000,,,,,,,
1591684244081.863500,461,0,0,0,42846.000000,78614.000000,114571.000000,-21.000000,-19.000000,-1005.000000,,,,,,,
1591684244101.827100,462,0,0,0,42862.000000,78616.000000,114604.000000,-37.000000,-48.000000,-1031.000000,,,,,,,
1591684244121.790800,463,0,0,0,42895.000000,78668.000000,114606.000000,-14.000000,-19.000000,-1006.000000,,,,,,,
1591684244141.754200,464,0,0,0,42903.000000,78646.000000,114594.000000,2.000000,5.000000,-974.000000,,,,,,,
1591684244161.717800,465,0,0,0,42909.000000,78642.000000,114593.000000,12.000000,14.000000,-971.000000,,,,,,,
1591684244181.681400,466,0,0,0,42912.000000,78646.000000,114588.000000,11.000000,19.000000,-968.000000,,,,,,,
1591684244201.645000,467,0,0,0,42967.000000,78656.000000,114627.000000,-23.000000,-18.000000,-1016.000000,,,,,,,
1591684244221.608600,468,0,0,0,43027.000000,78693.000000,114652.000000,-24.000000,-19.000000,-992.000000,,,,,,,
1591684244241.572300,469,0,0,0,43114.000000,78740.000000,114679.000000,0.000000,9.000000,-965.000000,,,,,,,
1591684244261.535900,470,0,0,0,43213.000000,78799.000000,114697.000000,5.000000,14.000000,-965.000000,,,,,,,
1591684244281.499500,471,0,0,0,43285.000000,78778.000000,114686.000000,3.000000,10.000000,-973.000000,,,,,,,
1591684244301.463100,472,0,0,0,43337.000000,78796.000000,114713.000000,-12.000000,-8.000000,-984.000000,,,,,,,
1591684244321.426800,473,0,0,0,43421.000000,78791.000000,114719.000000,-36.000000,-37.000000,-1032.000000,,,,,,,
1591684244341.390400,474,0,0,0,43477.000000,78856.000000,114764.000000,-20.000000,-20.000000,-1003.000000,,,,,,,
1591684244361.354000,475,0,0,0,43538.000000,78864.000000,114742.000000,15.000000,30.000000,-951.000000,,,,,,,
1591684244381.317600,476,0,0,0,43579.000000,78854.000000,114773.000000,12.000000,30.000000,-944.000000,,,,,,,
1591684244401.281000,477,0,0,0,43655.000000,78880.000000,114754.000000,-39.000000,-40.000000,-1013.000000,,,,,,,
1591684244421.244600,478,0,0,0,43721.000000,78893.000000,114766.000000,-23.000000,-20.000000,-967.000000,,,,,,,
1591684244441.208300,479,0,0,0,43766.000000,78897.000000,114774.000000,-1.000000,6.000000,-962.000000,,,,,,,
1591684244461.171900,480,0,0,0,43837.000000,78910.000000,114799.000000,4.000000,24.000000,-962.000000,0.000000,9818,,,,,
1591684244481.135500,481,0,0,0,43904.000000,78920.000000,114788.000000,5.000000,23.000000,-971.000000,,,,,,,
1591684244501.099100,482,0,0,0,43972.000000,78949.000000,114821.000000,-22.000000,-30.000000,-1008.000000,,,,,,,
1591684244521.062700,483,0,0,0,44017.000000,78946.000000,114830.000000,-23.000000,-22.000000,-1000.000000,,,,,,,
1591684244541.026400,484,0,0,0,44059.000000,78929.000000,114784.000000,7.000000,14.000000,-966.000000,,,,,,,
1591684244560.990000,485,0,0,0,44048.000000,78891.000000,114773.000000,13.000000,21.000000,-961.000000,,,,,,,
1591684244580.953600,486,0,0,0,43899.000000,78849.000000,114740.000000,-7.000000,-3.000000,-972.000000,,,,,,,
1591684244600.917200,487,0,0,0,43724.000000,78796.000000,114706.000000,-14.000000,-17.000000,-991.000000,,,,,,,
1591684244620.880900,488,0,0,0,43563.000000,78769.000000,114712.000000,-47.000000,-33.000000,-1014.000000,,,,,,,
1591684244640.844500,489,0,0,0,43463.000000,78720.000000,114740.000000,-14.000000,-4.000000,-1004.000000,,,,,,,
1591684244660.808100,490,0,0,0,43479.000000,78801.000000,114765.000000,29.000000,30.000000,-955.000000,,,,,,,
1591684244680.771500,491,0,0,0,43569.000000,78838.000000,114774.000000,23.000000,18.000000,-946.000000,,,,,,,
1591684244700.735100,492,0,0,0,43614.000000,78863.000000,114790.000000,-31.000000,-33.000000,-1022.000000,,,,,,,
1591684244720.698700,493,0,0,0,43710.000000,78874.000000,114796.000000,-34.000000,-28.000000,-1018.000000,,,,,,,
1591684244740.662400,494,0,0,0,43774.000000,78879.000000,114780.000000,5.000000,6.000000,-975.000000,,,,,,,
1591684244760.626000,495,0,0,0,43832.000000,78901.000000,114769.000000,20.000000,14.000000,-959.000000,,,,,,,
1591684244780.589600,496,0,0,0,43919.000000,78907.000000,114813.000000,4.000000,13.000000,-958.000000,,,,,,,
1591684244800.553200,497,0,0,0,43929.000000,78896.000000,114772.000000,-26.000000,-24.000000,-1000.000000,,,,,,,
1591684244820.516800,498,0,0,0,43937.000000,78918.000000,114802.000000,-9.000000,-24.000000,-1007.000000,,,,,,,
1591684244840.480500,499,0,0,0,43939.000000,78915.000000,114800.000000,7.000000,5.000000,-975.000000,,,,,,,
1591684244860.444100,500,0,0,0,43938.000000,78898.000000,114794.000000,7.000000,13.000000,-949.000000,,,,,,,
1591684244880.407700,501,0,0,0,43942.000000,78881.000000,114831.000000,4.000000,0.000000,-972.000000,,,,,,,
1591684244900.371300,502,0,0,0,43985.000000,78899.000000,114797.000000,-7.000000,-12.000000,-994.000000,,,,,,,
1591684244920.335000,503,0,0,0,44055.000000,78932.000000,114819.000000,-43.000000,-42.000000,-1010.000000,,,,,,,
1591684244940.298300,504,0,0,0,44100.000000,78957.000000,114821.000000,-18.000000,-15.000000,-999.000000,,,,,,,
1591684244960.262000,505,0,0,0,44170.000000,78973.000000,114829.000000,12.000000,32.000000,-937.000000,,,,,,,
1591684244980.225600,506,0,0,0,44241.000000,79002.000000,114835.000000,8.000000,32.000000,-942.000000,,,,,,,
1591684245000.189200,507,0,0,0,44308.000000,79026.000000,114830.000000,-26.000000,-36.000000,-1017.000000,,,,,,,
1591684245020.152800,508,0,0,0,44395.000000,79049.000000,114864.000000,-29.000000,-29.000000,-1011.000000,,,,,,,
1591684245040.116500,509,0,0,0,44454.000000,79030.000000,114874.000000,0.000000,12.000000,-977.000000,,,,,,,
1591684245060.080100,510,0,0,0,44484.000000,79035.000000,114826.000000,0.000000,5.000000,-960.000000,,,,,,,
1591684245080.043700,511,0,0,0,44547.000000,79068.000000,114860.000000,1.000000,15.000000,-959.000000,,,,,,,
1591684245100.007300,512,0,0,0,44570.000000,79071.000000,114863.000000,-22.000000,3.000000,-1028.000000,,,,,,,
1591684245119.970900,513,0,0,0,44637.000000,79066.000000,114871.000000,-21.000000,-18.000000,-1013.000000,,,,,,,
1591684245139.934600,514,0,0,0,44675.000000,79064.000000,114869.000000,5.000000,10.000000,-976.000000,,,,,,,
1591684245159.898200,515,0,0,0,44731.000000,79012.000000,114879.000000,5.000000,23.000000,-954.000000,,,,,,,
1591684245179.861800,516,0,0,0,44804.000000,79097.000000,114896.000000,-10.000000,0.000000,-968.000000,,,,,,,
1591684245199.825400,517,0,0,0,44843.000000,79104.000000,114864.000000,-22.000000,-10.000000,-998.000000,,,,,,,
1591684245219.788800,518,0,0,0,44886.000000,79067.000000,114883.000000,-41.000000,-40.000000,-1024.000000,,,,,,,
1591684245239.752400,519,0,0,0,44882.000000,79062.000000,114824.000000,-17.000000,-19.000000,-1008.000000,,,,,,,
1591684245259.716100,520,0,0,0,44759.000000,78994.000000,114792.000000,18.000000,27.000000,-943.000000,,,,,,,
1591684245279.679700,521,0,0,0,44559.000000,78932.000000,114774.000000,19.000000,20.000000,-968.000000,,,,,,,
1591684245299.643300,522,0,0,0,44374.000000,78843.000000,114715.000000,-35.000000,-39.000000,-1019.000000,,,,,,,
1591684245319.606900,523,0,0,0,44166.000000,78809.000000,114715.000000,-32.000000,-37.000000,-1017.000000,,,,,,,
1591684245339.570600,524,0,0,0,44117.000000,78810.000000,114735.000000,-10.000000,0.000000,-971.000000,,,,,,,
1591684245359.534200,525,0,0,0,44123.000000,78808.000000,114718.000000,0.000000,8.000000,-976.000000,,,,,,,
1591684245379.497800,526,0,0,0,44132.000000,78832.000000,114752.000000,0.000000,9.000000,-970.000000,,,,,,,
1591684245399.461400,527,0,0,0,44159.000000,78841.000000,114741.000000,-18.000000,-19.000000,-1014.000000,,,,,,,
1591684245419.425000,528,0,0,0,44191.000000,78840.000000,114724.000000,-26.000000,-25.000000,-1011.000000,,,,,,,
1591684245439.388700,529,0,0,0,44227.000000,78840.000000,114720.000000,4.000000,3.000000,-963.000000,,,,,,,
1591684245459.352300,530,0,0,0,44259.000000,78863.000000,114756.000000,7.000000,12.000000,-967.000000,0.000000,10840,,,,,
1591684245479.315900,531,0,0,0,44291.000000,78866.000000,114700.000000,1.000000,-8.000000,-967.000000,,,,,,,
1591684245499.279300,532,0,0,0,44274.000000,78859.000000,114689.000000,-14.000000,-7.000000,-997.000000,,,,,,,
1591684245519.242900,533,0,0,0,44286.000000,78835.000000,114695.000000,-40.000000,-39.000000,-1026.000000,,,,,,,
1591684245539.206500,534,0,0,0,44273.000000,78833.000000,114701.000000,-18.000000,-20.000000,-1015.000000,,,,,,,
1591684245559.170200,535,0,0,0,44227.000000,78834.000000,114658.000000,27.000000,20.000000,-951.000000,,,,,,,
1591684245579.133800,536,0,0,0,44242.000000,78799.000000,114654.000000,13.000000,15.000000,-948.000000,,,,,,,
1591684245599.097400,537,0,0,0,44263.000000,78815.000000,114696.000000,-35.000000,-32.000000,-1022.000000,,,,,,,
1591684245619.061000,538,0,0,0,44316.000000,78886.000000,114686.000000,-25.000000,-35.000000,-1017.000000,,,,,,,
1591684245639.024700,539,0,0,0,44360.000000,78826.000000,114688.000000,6.000000,11.000000,-969.000000,,,,,,,
1591684245658.988300,540,0,0,0,44401.000000,78864.000000,114673.000000,9.000000,9.000000,-980.000000,,,,,,,
1591684245678.951900,541,0,0,0,44448.000000,78888.000000,114685.000000,4.000000,19.000000,-968.000000,,,,,,,
1591684245698.915500,542,0,0,0,44497.000000,78904.000000,114690.000000,-28.000000,-20.000000,-1000.000000,,,,,,,
1591684245718.879200,543,0,0,0,44538.000000,78891.000000,114694.000000,-25.000000,-21.000000,-1005.000000,,,,,,,
1591684245738.842800,544,0,0,0,44560.000000,78909.000000,114712.000000,-4.000000,28.000000,-951.000000,,,,,,,
1591684245758.806200,545,0,0,0,44631.000000,78911.000000,114714.000000,7.000000,32.000000,-965.000000,,,,,,,
1591684245778.769800,546,0,0,0,44650.000000,78911.000000,114681.000000,1.000000,7.000000,-979.000000,,,,,,,
1591684245798.733400,547,0,0,0,44701.000000,78943.000000,114716.000000,-4.000000,-10.000000,-979.000000,,,,,,,
1591684245818.697000,548,0,0,0,44746.000000,78952.000000,114712.000000,-37.000000,-42.000000,-1019.000000,,,,,,,
1591684245838.660600,549,0,0,0,44784.000000,78943.000000,114720.000000,-27.000000,-40.000000,-1012.000000,,,,,,,
1591684245858.624300,550,0,0,0,44844.000000,78985.000000,114766.000000,22.000000,26.000000,-953.000000,,,,,,,
1591684245878.587900,551,0,0,0,44884.000000,79000.000000,114738.000000,26.000000,20.000000,-955.000000,,,,,,,
1591684245898.551500,552,0,0,0,44933.000000,78989.000000,114737.000000,-40.000000,-39.000000,-1026.000000,,,,,,,
1591684245918.515100,553,0,0,0,44999.000000,79001.000000,114801.000000,-40.000000,-35.000000,-1013.000000,,,,,,,
1591684245938.478800,554,0,0,0,45042.000000,79033.000000,114763.000000,-14.000000,2.000000,-975.000000,,,,,,,
1591684245958.442400,555,0,0,0,45041.000000,78959.000000,114743.000000,17.000000,29.000000,-947.000000,,,,,,,
1591684245978.406000,556,0,0,0,44888.000000,78917.000000,114654.000000,4.000000,18.000000,-970.000000,,,,,,,
1591684245998.369600,557,0,0,0,44646.000000,78853.000000,114665.000000,-28.000000,-35.000000,-999.000000,,,,,,,
1591684246018.333300,558,0,0,0,44433.000000,78792.000000,114647.000000,-13.000000,-29.000000,-1003.000000,,,,,,,
1591684246038.296600,559,0,0,0,44282.000000,78775.000000,114604.000000,-8.000000,6.000000,-972.000000,,,,,,,
1591684246058.260300,560,0,0,0,44251.000000,78771.000000,114630.000000,15.000000,17.000000,-973.000000,,,,,,,
1591684246078.223900,561,0,0,0,44298.000000,78817.000000,114640.000000,-1.000000,4.000000,-962.000000,,,,,,,
1591684246098.187500,562,0,0,0,44306.000000,78835.000000,114684.000000,2.000000,-5.000000,-967.000000,,,,,,,
1591684246118.151100,563,0,0,0,44355.000000,78855.000000,114653.000000,-38.000000,-43.000000,-1017.000000,,,,,,,
1591684246138.114700,564,0,0,0,44373.000000,78838.000000,114660.000000,-40.000000,-41.000000,-1034.000000,,,,,,,
1591684246158.078400,565,0,0,0,44425.000000,78875.000000,114670.000000,16.000000,30.000000,-955.000000,,,,,,,
1591684246178.042000,566,0,0,0,44483.000000,78881.000000,114703.000000,17.000000,35.000000,-940.000000,,,,,,,
1591684246198.005600,567,0,0,0,44476.000000,78886.000000,114678.000000,-21.000000,-14.000000,-1012.000000,,,,,,,
1591684246217.969200,568,0,0,0,44521.000000,78892.000000,114634.000000,-34.000000,-48.000000,-1016.000000,,,,,,,
1591684246237.932900,569,0,0,0,44470.000000,78831.000000,114564.000000,-9.000000,-6.000000,-996.000000,,,,,,,
1591684246257.896500,570,0,0,0,44441.000000,78804.000000,114616.000000,24.000000,28.000000,-940.000000,,,,,,,
1591684246277.860100,571,0,0,0,44409.000000,78707.000000,114580.000000,6.000000,6.000000,-962.000000,,,,,,,
1591684246297.823500,572,0,0,0,44403.000000,78778.000000,114539.000000,-33.000000,-33.000000,-1029.000000,,,,,,,
1591684246317.787100,573,0,0,0,44389.000000,78754.000000,114525.000000,-21.000000,-20.000000,-1011.000000,,,,,,,
1591684246337.750700,574,0,0,0,44415.000000,78745.000000,114523.000000,18.000000,0.000000,-984.000000,,,,,,,
1591684246357.714400,575,0,0,0,44419.000000,78730.000000,114510.000000,5.000000,12.000000,-964.000000,,,,,,,
1591684246377.678000,576,0,0,0,44436.000000,78723.000000,114475.000000,0.000000,4.000000,-972.000000,,,,,,,
1591684246397.641600,577,0,0,0,44437.000000,78715.000000,114478.000000,-8.000000,-3.000000,-968.000000,,,,,,,
1591684246417.605200,578,0,0,0,44479.000000,78745.000000,114491.000000,-35.000000,-36.000000,-1009.000000,,,,,,,
1591684246437.568800,579,0,0,0,44518.000000,78775.000000,114538.000000,-43.000000,-28.000000,-1032.000000,,,,,,,
1591684246457.532500,580,0,0,0,44559.000000,78768.000000,114528.000000,11.000000,31.000000,-955.000000,0.000000,11862,,,,,
1591684246477.496100,581,0,0,0,44558.000000,78750.000000,114498.000000,15.000000,21.000000,-947.000000,,,,,,,
1591684246497.459700,582,0,0,0,44580.000000,78757.000000,114480.000000,-22.000000,-28.000000,-1003.000000,,,,,,,
1591684246517.423300,583,0,0,0,44584.000000,78766.000000,114541.000000,-35.000000,-34.000000,-1031.000000,,,,,,,
1591684246537.387000,584,0,0,0,44621.000000,78775.000000,114488.000000,-17.000000,-25.000000,-1004.000000,,,,,,,
1591684246557.350600,585,0,0,0,44647.000000,78803.000000,114513.000000,26.000000,23.000000,-946.000000,,,,,,,
1591684246577.314000,586,0,0,0,44695.000000,78756.000000,114491.000000,11.000000,19.000000,-955.000000,,,,,,,
1591684246597.277600,587,0,0,0,44704.000000,78777.000000,114491.000000,-31.000000,-35.000000,-1017.000000,,,,,,,
1591684246617.241200,588,0,0,0,44743.000000,78802.000000,114521.000000,-37.000000,-27.000000,-996.000000,,,,,,,
1591684246637.204800,589,0,0,0,44791.000000,78819.000000,114508.000000,0.000000,0.000000,-964.000000,,,,,,,
1591684246657.168500,590,0,0,0,44824.000000,78792.000000,114505.000000,1.000000,5.000000,-969.000000,,,,,,,
1591684246677.132100,591,0,0,0,44810.000000,78779.000000,114481.000000,2.000000,2.000000,-963.000000,,,,,,,
1591684246697.095700,592,0,0,0,44780.000000,78742.000000,114424.000000,1.000000,5.000000,-971.000000,,,,,,,
1591684246717.059300,593,0,0,0,44583.000000,78635.000000,114366.000000,-21.000000,-31.000000,-1003.000000,,,,,,,
1591684246737.022900,594,0,0,0,44264.000000,78540.000000,114305.000000,-18.000000,-37.000000,-1033.000000,,,,,,,
1591684246756.986600,595,0,0,0,43930.000000,78462.000000,114256.000000,14.000000,23.000000,-963.000000,,,,,,,
1591684246776.950200,596,0,0,0,43673.000000,78420.000000,114276.000000,19.000000,26.000000,-933.000000,,,,,,,
1591684246796.913800,597,0,0,0,43580.000000,78411.000000,114243.000000,-24.000000,-18.000000,-1000.000000,,,,,,,
1591684246816.877400,598,0,0,0,43571.000000,78444.000000,114291.000000,-38.000000,-35.000000,-1022.000000,,,,,,,
1591684246836.840800,599,0,0,0,43597.000000,78488.000000,114303.000000,-18.000000,-4.000000,-988.000000,,,,,,,
1591684246856.804400,600,0,0,0,43633.000000,78465.000000,114312.000000,28.000000,30.000000,-947.000000,,,,,,,
1591684246876.768100,601,0,0,0,43654.000000,78487.000000,114303.000000,12.000000,16.000000,-958.000000,,,,,,,
1591684246896.731700,602,0,0,0,43652.000000,78499.000000,114304.000000,-29.000000,-31.000000,-1021.000000,,,,,,,
1591684246916.695300,603,0,0,0,43670.000000,78499.000000,114308.000000,-25.000000,-28.000000,-1000.000000,,,,,,,
1591684246936.658900,604,0,0,0,43680.000000,78508.000000,114280.000000,0.000000,0.000000,-968.000000,,,,,,,
1591684246956.622600,605,0,0,0,43676.000000,78474.000000,114285.000000,5.000000,-1.000000,-962.000000,,,,,,,
1591684246976.586200,606,0,0,0,43645.000000,78518.000000,114325.000000,1.000000,15.000000,-970.000000,,,,,,,
1591684246996.549800,607,0,0,0,43651.000000,78506.000000,114301.000000,5.000000,8.000000,-983.000000,,,,,,,
1591684247016.513400,608,0,0,0,43625.000000,78501.000000,114281.000000,-34.000000,-32.000000,-1010.000000,,,,,,,
1591684247036.477100,609,0,0,0,43570.000000,78530.000000,114292.000000,-36.000000,-38.000000,-1019.000000,,,,,,,
1591684247056.440700,610,0,0,0,43597.000000,78535.000000,114312.000000,24.000000,21.000000,-953.000000,,,,,,,
1591684247076.404300,611,0,0,0,43658.000000,78528.000000,114321.000000,28.000000,29.000000,-947.000000,,,,,,,
1591684247096.367900,612,0,0,0,43715.000000,78557.000000,114345.000000,-19.000000,-28.000000,-1013.000000,,,,,,,
1591684247116.331300,613,0,0,0,43784.000000,78623.000000,114385.000000,-41.000000,-48.000000,-1024.000000,,,,,,,
1591684247136.294900,614,0,0,0,43861.000000,78620.000000,114374.000000,-6.000000,-16.000000,-995.000000,,,,,,,
1591684247156.258500,615,0,0,0,43941.000000,78655.000000,114392.000000,5.000000,11.000000,-972.000000,,,,,,,
1591684247176.222200,616,0,0,0,44015.000000,78636.000000,114395.000000,24.000000,20.000000,-959.000000,,,,,,,
1591684247196.185800,617,0,0,0,44009.000000,78662.000000,114400.000000,-28.000000,-29.000000,-1027.000000,,,,,,,
1591684247216.149400,618,0,0,0,44074.000000,78671.000000,114445.000000,-26.000000,-28.000000,-1011.000000,,,,,,,
1591684247236.113000,619,0,0,0,44125.000000,78688.000000,114410.000000,-1.000000,2.000000,-964.000000,,,,,,,
1591684247256.076700,620,0,0,0,44156.000000,78681.000000,114448.000000,0.000000,3.000000,-948.000000,,,,,,,
1591684247276.040300,621,0,0,0,44182.000000,78674.000000,114414.000000,10.000000,0.000000,-979.000000,,,,,,,
1591684247296.003900,622,0,0,0,44220.000000,78694.000000,114405.000000,10.000000,1.000000,-974.000000,,,,,,,
1591684247315.967500,623,0,0,0,44262.000000,78715.000000,114456.000000,-21.000000,-22.000000,-1029.000000,,,,,,,
1591684247335.931200,624,0,0,0,44315.000000,78713.000000,114473.000000,-52.000000,-37.000000,-1027.000000,,,,,,,
1591684247355.894800,625,0,0,0,44395.000000,78762.000000,114458.000000,17.000000,18.000000,-949.000000,,,,,,,
1591684247375.858400,626,0,0,0,44461.000000,78753.000000,114480.000000,16.000000,24.000000,-952.000000,,,,,,,
1591684247395.821800,627,0,0,0,44483.000000,78742.000000,114484.000000,-32.000000,-23.000000,-994.000000,,,,,,,
1591684247415.785400,628,0,0,0,44468.000000,78727.000000,114418.000000,-40.000000,-41.000000,-1028.000000,,,,,,,
1591684247435.749000,629,0,0,0,44311.000000,78673.000000,114401.000000,-22.000000,-26.000000,-992.000000,,,,,,,
1591684247455.712600,630,0,0,0,44062.000000,78557.000000,114341.000000,26.000000,20.000000,-946.000000,0.000000,12884,,,,,
1591684247475.678500,631,0,0,0,43789.000000,78516.000000,114323.000000,10.000000,28.000000,-947.000000,,,,,,,
1591684247495.644500,632,0,0,0,43615.000000,78503.000000,114308.000000,-41.000000,-40.000000,-1017.000000,,,,,,,
1591684247515.610400,633,0,0,0,43548.000000,78528.000000,114353.000000,-47.000000,-37.000000,-1033.000000,,,,,,,
1591684247535.576200,634,0,0,0,43503.000000,78528.000000,114346.000000,-14.000000,4.000000,-979.000000,,,,,,,
1591684247555.542000,635,0,0,0,43567.000000,78577.000000,114309.000000,-3.000000,1.000000,-959.000000,,,,,,,
1591684247575.507800,636,0,0,0,43659.000000,78616.000000,114392.000000,8.000000,12.000000,-964.000000,,,,,,,
1591684247595.473600,637,0,0,0,43710.000000,78616.000000,114425.000000,4.000000,12.000000,-974.000000,,,,,,,
1591684247615.439500,638,0,0,0,43707.000000,78617.000000,114406.000000,-27.000000,-14.000000,-994.000000,,,,,,,
1591684247635.405500,639,0,0,0,43750.000000,78606.000000,114400.000000,-24.000000,-33.000000,-1009.000000,,,,,,,
1591684247655.371300,640,0,0,0,43778.000000,78606.000000,114408.000000,9.000000,9.000000,-969.000000,,,,,,,
1591684247675.337200,641,0,0,0,43783.000000,78625.000000,114418.000000,11.000000,21.000000,-961.000000,,,,,,,
1591684247695.303000,642,0,0,0,43798.000000,78643.000000,114405.000000,-7.000000,0.000000,-960.000000,,,,,,,
1591684247715.268800,643,0,0,0,43776.000000,78616.000000,114431.000000,-45.000000,-30.000000,-1010.000000,,,,,,,
1591684247735.234600,644,0,0,0,43757.000000,78645.000000,114404.000000,-29.000000,-41.000000,-1024.000000,,,,,,,
1591684247755.200700,645,0,0,0,43760.000000,78626.000000,114415.000000,12.000000,45.000000,-960.000000,,,,,,,
1591684247775.166500,646,0,0,0,43818.000000,78677.000000,114445.000000,24.000000,35.000000,-950.000000,,,,,,,
1591684247795.132300,647,0,0,0,43858.000000,78676.000000,114460.000000,-37.000000,-21.000000,-1013.000000,,,,,,,
1591684247815.098100,648,0,0,0,43912.000000,78698.000000,114448.000000,-37.000000,-27.000000,-1013.000000,,,,,,,
1591684247835.064000,649,0,0,0,43980.000000,78733.000000,114466.000000,-2.000000,-2.000000,-992.000000,,,,,,,
1591684247855.029800,650,0,0,0,44057.000000,78744.000000,114501.000000,5.000000,13.000000,-981.000000,,,,,,,
1591684247874.995800,651,0,0,0,44145.000000,78799.000000,114529.000000,7.000000,10.000000,-962.000000,,,,,,,
1591684247894.961700,652,0,0,0,44219.000000,78825.000000,114534.000000,4.000000,10.000000,-956.000000,,,,,,,
1591684247914.927500,653,0,0,0,44280.000000,78848.000000,114541.000000,-19.000000,-24.000000,-1008.000000,,,,,,,
1591684247934.893300,654,0,0,0,44345.000000,78854.000000,114604.000000,-15.000000,-23.000000,-1006.000000,,,,,,,
1591684247954.859100,655,0,0,0,44414.000000,78849.000000,114556.000000,-1.000000,11.000000,-969.000000,,,,,,,
1591684247974.825000,656,0,0,0,44461.000000,78897.000000,114562.000000,9.000000,3.000000,-964.000000,,,,,,,
1591684247994.790800,657,0,0,0,44518.000000,78883.000000,114598.000000,-3.000000,7.000000,-969.000000,,,,,,,
1591684248014.756800,658,0,0,0,44568.000000,78890.000000,114603.000000,-22.000000,-31.000000,-1013.000000,,,,,,,
1591684248034.722700,659,0,0,0,44615.000000,78939.000000,114624.000000,-34.000000,-46.000000,-1020.000000,,,,,,,
1591684248054.688500,660,0,0,0,44699.000000,78947.000000,114629.000000,35.000000,24.000000,-964.000000,,,,,,,
1591684248074.654300,661,0,0,0,44772.000000,78978.000000,114655.000000,31.000000,25.000000,-949.000000,,,,,,,
1591684248094.620100,662,0,0,0,44814.000000,78975.000000,114668.000000,-18.000000,-20.000000,-1002.000000,,,,,,,
1591684248114.585900,663,0,0,0,44876.000000,78985.000000,114662.000000,-34.000000,-36.000000,-1028.000000,,,,,,,
1591684248134.552000,664,0,0,0,44932.000000,78966.000000,114681.000000,-23.000000,-6.000000,-998.000000,,,,,,,
1591684248154.517800,665,0,0,0,44963.000000,78991.000000,114680.000000,-1.000000,2.000000,-973.000000,,,,,,,
1591684248174.483600,666,0,0,0,44932.000000,78934.000000,114636.000000,15.000000,26.000000,-958.000000,,,,,,,
1591684248194.449500,667,0,0,0,44762.000000,78888.000000,114628.000000,11.000000,10.000000,-972.000000,,,,,,,
1591684248214.415300,668,0,0,0,44525.000000,78825.000000,114588.000000,-37.000000,-41.000000,-1009.000000,,,,,,,
1591684248234.381100,669,0,0,0,44288.000000,78757.000000,114560.000000,8.000000,8.000000,-976.000000,,,,,,,
1591684248254.347200,670,0,0,0,44127.000000,78736.000000,114514.000000,8.000000,1.000000,-969.000000,,,,,,,
1591684248274.313000,671,0,0,0,44040.000000,78699.000000,114529.000000,9.000000,26.000000,-967.000000,,,,,,,
1591684248294.278800,672,0,0,0,44034.000000,78725.000000,114503.000000,5.000000,6.000000,-957.000000,,,,,,,
1591684248314.244600,673,0,0,0,44082.000000,78764.000000,114523.000000,-19.000000,-16.000000,-1007.000000,,,,,,,
1591684248334.210400,674,0,0,0,44092.000000,78780.000000,114546.000000,-35.000000,-29.000000,-1016.000000,,,,,,,
1591684248354.176300,675,0,0,0,44119.000000,78795.000000,114554.000000,7.000000,12.000000,-971.000000,,,,,,,
1591684248374.142100,676,0,0,0,44119.000000,78781.000000,114537.000000,17.000000,22.000000,-953.000000,,,,,,,
1591684248394.108200,677,0,0,0,44139.000000,78758.000000,114510.000000,9.000000,-3.000000,-986.000000,,,,,,,
1591684248414.074000,678,0,0,0,44159.000000,78787.000000,114542.000000,-21.000000,-38.000000,-997.000000,,,,,,,
1591684248434.039800,679,0,0,0,44182.000000,78802.000000,114562.000000,-32.000000,-39.000000,-1020.000000,,,,,,,
1591684248454.005600,680,0,0,0,44205.000000,78817.000000,114563.000000,-14.000000,-11.000000,-995.000000,,,,,,,
1591684248473.971400,681,0,0,0,44187.000000,78763.000000,114538.000000,19.000000,27.000000,-942.000000,,,,,,,
1591684248493.937300,682,0,0,0,44131.000000,78764.000000,114501.000000,-32.000000,-35.000000,-1018.000000,0.000000,13947,,,,,
1591684248513.900900,683,0,0,0,44152.000000,78799.000000,114480.000000,-34.000000,-36.000000,-1011.000000,,,,,,,
1591684248533.864500,684,0,0,0,44172.000000,78809.000000,114515.000000,-10.000000,-1.000000,-984.000000,,,,,,,
1591684248553.828100,685,0,0,0,44203.000000,78799.000000,114510.000000,3.000000,0.000000,-979.000000,,,,,,,
1591684248573.791700,686,0,0,0,44260.000000,78822.000000,114544.000000,4.000000,16.000000,-976.000000,,,,,,,
1591684248593.755400,687,0,0,0,44311.000000,78864.000000,114585.000000,0.000000,6.000000,-958.000000,,,,,,,
1591684248613.719000,688,0,0,0,44379.000000,78886.000000,114567.000000,-19.000000,-26.000000,-1012.000000,,,,,,,
1591684248633.682600,689,0,0,0,44448.000000,78900.000000,114588.000000,-24.000000,-27.000000,-1013.000000,,,,,,,
1591684248653.646200,690,0,0,0,44501.000000,78873.000000,114563.000000,7.000000,19.000000,-951.000000,,,,,,,
1591684248673.609900,691,0,0,0,44544.000000,78884.000000,114569.000000,23.000000,18.000000,-960.000000,,,,,,,
1591684248693.573500,692,0,0,0,44599.000000,78915.000000,114592.000000,0.000000,4.000000,-973.000000,,,,,,,
1591684248713.537100,693,0,0,0,44683.000000,78955.000000,114602.000000,-25.000000,0.000000,-1002.000000,,,,,,,
1591684248733.500700,694,0,0,0,44722.000000,78945.000000,114592.000000,-39.000000,-38.000000,-1022.000000,,,,,,,
1591684248753.464100,695,0,0,0,44754.000000,78934.000000,114566.000000,22.000000,8.000000,-946.000000,,,,,,,
1591684248773.427700,696,0,0,0,44799.000000,78949.000000,114624.000000,28.000000,23.000000,-941.000000,,,,,,,
1591684248793.391400,697,0,0,0,44880.000000,79009.000000,114623.000000,-19.000000,-11.000000,-1011.000000,,,,,,,
1591684248813.355000,698,0,0,0,44949.000000,78998.000000,114614.000000,-29.000000,-38.000000,-1018.000000,,,,,,,
1591684248833.318600,699,0,0,0,45005.000000,79023.000000,114598.000000,-2.000000,-19.000000,-989.000000,,,,,,,
1591684248853.282200,700,0,0,0,45051.000000,79050.000000,114637.000000,9.000000,4.000000,-967.000000,,,,,,,
1591684248873.245800,701,0,0,0,45135.000000,79092.000000,114644.000000,8.000000,22.000000,-960.000000,,,,,,,
1591684248893.209500,702,0,0,0,45227.000000,79082.000000,114599.000000,11.000000,7.000000,-949.000000,,,,,,,
1591684248913.173100,703,0,0,0,45273.000000,79095.000000,114603.000000,-18.000000,-26.000000,-1012.000000,,,,,,,
1591684248933.136700,704,0,0,0,45307.000000,79042.000000,114559.000000,-13.000000,-18.000000,-997.000000,,,,,,,
1591684248953.100300,705,0,0,0,45185.000000,78958.000000,114491.000000,10.000000,9.000000,-974.000000,,,,,,,
1591684248973.064000,706,0,0,0,44976.000000,78870.000000,114406.000000,18.000000,32.000000,-963.000000,,,,,,,
1591684248993.027600,707,0,0,0,44727.000000,78845.000000,114372.000000,19.000000,-1.000000,-966.000000,,,,,,,
1591684249012.991200,708,0,0,0,44591.000000,78833.000000,114314.000000,3.000000,-11.000000,-982.000000,,,,,,,
1591684249032.954600,709,0,0,0,44530.000000,78822.000000,114384.000000,-14.000000,-44.000000,-1011.000000,,,,,,,
1591684249052.918200,710,0,0,0,44544.000000,78816.000000,114369.000000,28.000000,24.000000,-929.000000,,,,,,,
1591684249072.881800,711,0,0,0,44571.000000,78828.000000,114331.000000,50.000000,29.000000,-939.000000,,,,,,,
1591684249092.845500,712,0,0,0,44615.000000,78799.000000,114298.000000,-2.000000,-3.000000,-1017.000000,,,,,,,
1591684249112.809100,713,0,0,0,44601.000000,78810.000000,114307.000000,-10.000000,-43.000000,-1024.000000,,,,,,,
1591684249132.772700,714,0,0,0,44673.000000,78830.000000,114307.000000,0.000000,-7.000000,-990.000000,,,,,,,
1591684249152.736300,715,0,0,0,44718.000000,78842.000000,114288.000000,10.000000,4.000000,-979.000000,,,,,,,
1591684249172.700000,716,0,0,0,44728.000000,78859.000000,114261.000000,53.000000,27.000000,-949.000000,,,,,,,
1591684249192.663600,717,0,0,0,44761.000000,78820.000000,114221.000000,41.000000,18.000000,-957.000000,,,,,,,
1591684249212.627200,718,0,0,0,44768.000000,78785.000000,114186.000000,4.000000,-49.000000,-1023.000000,,,,,,,
1591684249232.590800,719,0,0,0,44693.000000,78728.000000,114142.000000,-7.000000,-29.000000,-1025.000000,,,,,,,
1591684249252.554400,720,0,0,0,44574.000000,78628.000000,114049.000000,23.000000,-17.000000,-978.000000,,,,,,,
1591684249272.518100,721,0,0,0,44467.000000,78615.000000,114079.000000,20.000000,-1.000000,-977.000000,,,,,,,
1591684249292.481700,722,0,0,0,44428.000000,78563.000000,113991.000000,13.000000,1.000000,-976.000000,,,,,,,
1591684249312.445100,723,0,0,0,44370.000000,78583.000000,114031.000000,12.000000,6.000000,-988.000000,,,,,,,
1591684249332.408700,724,0,0,0,44335.000000,78588.000000,114005.000000,-15.000000,-38.000000,-1029.000000,,,,,,,
1591684249352.372300,725,0,0,0,44333.000000,78565.000000,113995.000000,1.000000,37.000000,-965.000000,,,,,,,
1591684249372.335900,726,0,0,0,44295.000000,78479.000000,113966.000000,32.000000,29.000000,-939.000000,,,,,,,
1591684249392.299600,727,0,0,0,44259.000000,78450.000000,113952.000000,-25.000000,6.000000,-1023.000000,,,,,,,
1591684249412.263200,728,0,0,0,44239.000000,78493.000000,113948.000000,-22.000000,-42.000000,-1013.000000,,,,,,,
1591684249432.226800,729,0,0,0,44238.000000,78501.000000,113980.000000,-9.000000,-22.000000,-998.000000,,,,,,,
1591684249452.190400,730,0,0,0,44247.000000,78502.000000,113934.000000,0.000000,-1.000000,-981.000000,,,,,,,
1591684249472.154100,731,0,0,0,44227.000000,78476.000000,113911.000000,29.000000,24.000000,-947.000000,,,,,,,
1591684249492.117700,732,0,0,0,44207.000000,78502.000000,113916.000000,12.000000,3.000000,-957.000000,0.000000,14969,,,,,
1591684249512.081300,733,0,0,0,44247.000000,78515.000000,113974.000000,-36.000000,-44.000000,-994.000000,,,,,,,
1591684249532.044900,734,0,0,0,44298.000000,78566.000000,113989.000000,-17.000000,-21.000000,-1005.000000,,,,,,,
1591684249552.008500,735,0,0,0,44299.000000,78621.000000,114023.000000,-6.000000,12.000000,-983.000000,,,,,,,
1591684249571.971900,736,0,0,0,44358.000000,78637.000000,114002.000000,-6.000000,6.000000,-963.000000,,,,,,,
1591684249591.935500,737,0,0,0,44396.000000,78631.000000,114029.000000,-73.000000,-94.000000,-975.000000,,,,,,,
1591684249611.899200,738,0,0,0,44461.000000,78717.000000,114060.000000,-20.000000,-72.000000,-995.000000,,,,,,,
1591684249631.862800,739,0,0,0,44556.000000,78724.000000,114101.000000,-38.000000,-72.000000,-1013.000000,,,,,,,
1591684249651.826400,740,0,0,0,44594.000000,78719.000000,114046.000000,19.000000,13.000000,-950.000000,,,,,,,
1591684249671.790000,741,0,0,0,44461.000000,78632.000000,114017.000000,12.000000,9.000000,-950.000000,,,,,,,
1591684249691.753700,742,0,0,0,44265.000000,78584.000000,113952.000000,6.000000,3.000000,-981.000000,,,,,,,
1591684249711.717300,743,0,0,0,44045.000000,78542.000000,113994.000000,-21.000000,-16.000000,-1004.000000,,,,,,,
1591684249731.680900,744,0,0,0,43891.000000,78523.000000,113979.000000,-37.000000,-47.000000,-1015.000000,,,,,,,
1591684249751.644500,745,0,0,0,43814.000000,78547.000000,113984.000000,-14.000000,-32.000000,-992.000000,,,,,,,
1591684249771.608200,746,0,0,0,43847.000000,78563.000000,114006.000000,25.000000,20.000000,-950.000000,,,,,,,
1591684249791.571800,747,0,0,0,43906.000000,78642.000000,114084.000000,5.000000,40.000000,-965.000000,,,,,,,
1591684249811.535400,748,0,0,0,44005.000000,78649.000000,114114.000000,-52.000000,-20.000000,-1032.000000,,,,,,,
1591684249831.499000,749,0,0,0,44081.000000,78707.000000,114132.000000,-16.000000,-9.000000,-989.000000,,,,,,,
1591684249851.462400,750,0,0,0,44142.000000,78771.000000,114163.000000,6.000000,9.000000,-970.000000,,,,,,,
1591684249871.426000,751,0,0,0,44229.000000,78816.000000,114210.000000,23.000000,19.000000,-958.000000,,,,,,,
1591684249891.389600,752,0,0,0,44316.000000,78847.000000,114233.000000,11.000000,20.000000,-970.000000,,,,,,,
1591684249911.353300,753,0,0,0,44364.000000,78840.000000,114220.000000,-27.000000,-28.000000,-1016.000000,,,,,,,
1591684249931.316900,754,0,0,0,44364.000000,78808.000000,114212.000000,-22.000000,-16.000000,-995.000000,,,,,,,
1591684249951.280500,755,0,0,0,44355.000000,78775.000000,114193.000000,1.000000,0.000000,-975.000000,,,,,,,
1591684249971.244100,756,0,0,0,44359.000000,78801.000000,114214.000000,9.000000,10.000000,-969.000000,,,,,,,
1591684249991.207800,757,0,0,0,44385.000000,78789.000000,114222.000000,0.000000,-2.000000,-967.000000,,,,,,,
1591684250011.171400,758,0,0,0,44414.000000,78771.000000,114191.000000,6.000000,-10.000000,-965.000000,,,,,,,
1591684250031.135000,759,0,0,0,44431.000000,78776.000000,114224.000000,-33.000000,-43.000000,-1012.000000,,,,,,,
1591684250051.098600,760,0,0,0,44488.000000,78793.000000,114219.000000,17.000000,12.000000,-961.000000,,,,,,,
1591684250071.062300,761,0,0,0,44572.000000,78819.000000,114250.000000,17.000000,23.000000,-959.000000,,,,,,,
1591684250091.025900,762,0,0,0,44607.000000,78821.000000,114215.000000,-4.000000,-9.000000,-991.000000,,,,,,,
1591684250110.989300,763,0,0,0,44660.000000,78834.000000,114231.000000,-36.000000,-34.000000,-1028.000000,,,,,,,
1591684250130.952900,764,0,0,0,44699.000000,78842.000000,114231.000000,-30.000000,-20.000000,-1018.000000,,,,,,,
1591684250150.916500,765,0,0,0,44742.000000,78843.000000,114238.000000,-1.000000,-20.000000,-991.000000,,,,,,,
1591684250170.880100,766,0,0,0,44796.000000,78856.000000,114261.000000,19.000000,28.000000,-938.000000,,,,,,,
1591684250190.843700,767,0,0,0,44869.000000,78892.000000,114246.000000,5.000000,8.000000,-968.000000,,,,,,,
1591684250210.807400,768,0,0,0,44879.000000,78872.000000,114194.000000,-35.000000,-33.000000,-1026.000000,,,,,,,
1591684250230.771000,769,0,0,0,44930.000000,78907.000000,114236.000000,-27.000000,-24.000000,-1013.000000,,,,,,,
1591684250250.734600,770,0,0,0,44986.000000,78894.000000,114243.000000,-9.000000,8.000000,-972.000000,,,,,,,
1591684250270.698200,771,0,0,0,45031.000000,78913.000000,114251.000000,14.000000,5.000000,-966.000000,,,,,,,
1591684250290.661900,772,0,0,0,45082.000000,78938.000000,114267.000000,1.000000,7.000000,-970.000000,,,,,,,
1591684250310.625500,773,0,0,0,45152.000000,78945.000000,114287.000000,-15.000000,-20.000000,-1005.000000,,,,,,,
1591684250330.589100,774,0,0,0,45220.000000,79007.000000,114285.000000,-34.000000,-20.000000,-1015.000000,,,,,,,
1591684250350.552700,775,0,0,0,45276.000000,78992.000000,114288.000000,0.000000,10.000000,-980.000000,,,,,,,
1591684250370.516400,776,0,0,0,45267.000000,78947.000000,114269.000000,16.000000,14.000000,-961.000000,,,,,,,
1591684250390.479700,777,0,0,0,45183.000000,78915.000000,114230.000000,16.000000,6.000000,-961.000000,,,,,,,
1591684250410.443400,778,0,0,0,44984.000000,78840.000000,114214.000000,-5.000000,-6.000000,-977.000000,,,,,,,
1591684250430.407000,779,0,0,0,44765.000000,78832.000000,114206.000000,-35.000000,-34.000000,-1019.000000,,,,,,,
1591684250450.370600,780,0,0,0,44670.000000,78832.000000,114207.000000,-34.000000,-36.000000,-1018.000000,,,,,,,
1591684250470.334200,781,0,0,0,44656.000000,78841.000000,114193.000000,14.000000,18.000000,-939.000000,,,,,,,
1591684250490.297900,782,0,0,0,44681.000000,78807.000000,114190.000000,-16.000000,2.000000,-978.000000,0.000000,15991,,,,,
1591684250510.261500,783,0,0,0,44739.000000,78853.000000,114240.000000,-29.000000,-44.000000,-1005.000000,,,,,,,
1591684250530.225100,784,0,0,0,44829.000000,78889.000000,114244.000000,-30.000000,-35.000000,-993.000000,,,,,,,
1591684250550.188700,785,0,0,0,44904.000000,78922.000000,114279.000000,-16.000000,-4.000000,-980.000000,,,,,,,
1591684250570.152300,786,0,0,0,44975.000000,78959.000000,114268.000000,7.000000,20.000000,-937.000000,,,,,,,
1591684250590.116000,787,0,0,0,45027.000000,78964.000000,114300.000000,9.000000,18.000000,-957.000000,,,,,,,
1591684250610.079600,788,0,0,0,45071.000000,78981.000000,114299.000000,-32.000000,-36.000000,-1017.000000,,,,,,,
1591684250630.043200,789,0,0,0,45121.000000,78982.000000,114279.000000,-25.000000,-27.000000,-1006.000000,,,,,,,
1591684250650.006600,790,0,0,0,45155.000000,78988.000000,114293.000000,-3.000000,8.000000,-978.000000,,,,,,,
1591684250669.970200,791,0,0,0,45171.000000,79000.000000,114259.000000,15.000000,6.000000,-958.000000,,,,,,,
1591684250689.933800,792,0,0,0,45170.000000,78969.000000,114303.000000,4.000000,18.000000,-975.000000,,,,,,,
1591684250709.897500,793,0,0,0,45181.000000,78952.000000,114247.000000,-21.000000,-14.000000,-1006.000000,,,,,,,
1591684250729.861100,794,0,0,0,45203.000000,78943.000000,114279.000000,-23.000000,-29.000000,-1023.000000,,,,,,,
1591684250749.824700,795,0,0,0,45240.000000,78953.000000,114268.000000,8.000000,2.000000,-965.000000,,,,,,,
1591684250769.788300,796,0,0,0,45280.000000,78988.000000,114280.000000,13.000000,11.000000,-966.000000,,,,,,,
1591684250789.752000,797,0,0,0,45331.000000,78974.000000,114259.000000,10.000000,6.000000,-987.000000,,,,,,,
1591684250809.715600,798,0,0,0,45385.000000,79012.000000,114359.000000,-3.000000,-18.000000,-985.000000,,,,,,,
1591684250829.679200,799,0,0,0,45401.000000,78988.000000,114339.000000,-40.000000,-41.000000,-1018.000000,,,,,,,
1591684250849.642800,800,0,0,0,45394.000000,78974.000000,114382.000000,-31.000000,-39.000000,-1019.000000,,,,,,,
1591684250869.606400,801,0,0,0,45353.000000,78846.000000,114343.000000,9.000000,-21.000000,-953.000000,,,,,,,
1591684250889.570100,802,0,0,0,45221.000000,78665.000000,114196.000000,24.000000,-10.000000,-944.000000,,,,,,,
1591684250909.533700,803,0,0,0,44950.000000,78295.000000,113907.000000,-23.000000,-74.000000,-1010.000000,,,,,,,
1591684250929.497100,804,0,0,0,44569.000000,77764.000000,113487.000000,-35.000000,-73.000000,-1006.000000,,,,,,,
1591684250949.460700,805,0,0,0,44105.000000,77184.000000,113154.000000,10.000000,-9.000000,-954.000000,,,,,,,
1591684250969.424300,806,0,0,0,43683.000000,76922.000000,113073.000000,161.000000,5.000000,-915.000000,,,,,,,
1591684250989.387900,807,0,0,0,43366.000000,76885.000000,113113.000000,42.000000,4.000000,-933.000000,,,,,,,
1591684251009.351600,808,0,0,0,43026.000000,76722.000000,113085.000000,-47.000000,-44.000000,-989.000000,,,,,,,
1591684251029.315200,809,0,0,0,42694.000000,76521.000000,112967.000000,-140.000000,-53.000000,-987.000000,,,,,,,
1591684251049.278800,810,0,0,0,42310.000000,76131.000000,112732.000000,57.000000,-47.000000,-937.000000,,,,,,,
1591684251069.242400,811,0,0,0,41917.000000,75395.000000,112226.000000,28.000000,-70.000000,-932.000000,,,,,,,
1591684251089.206100,812,0,0,0,41283.000000,74277.000000,111444.000000,-187.000000,-28.000000,-906.000000,,,,,,,
1591684251109.169700,813,0,0,0,40309.000000,72639.000000,109234.000000,-196.000000,-59.000000,-925.000000,,,,,,,
1591684251129.133300,814,0,0,0,38066.000000,68640.000000,104577.000000,-359.000000,-104.000000,-927.000000,,,,,,,
1591684251149.096900,815,0,0,0,45647.000000,67100.000000,97958.000000,468.000000,1161.000000,4053.000000,,,,,,,
1591684251169.060500,816,0,0,0,32517.000000,48864.000000,81280.000000,-351.000000,65.000000,-807.000000,,,,,,,
1591684251189.024200,817,0,0,0,16352.000000,16352.000000,48864.000000,77.000000,66.000000,-1022.000000,,,,,,,
1591684251208.987500,818,0,0,0,2089.000000,3013.000000,16352.000000,-6.000000,-37.000000,-958.000000,,,,,,,
1591684251228.951200,819,0,0,0,742.000000,1143.000000,1419.000000,73.000000,-77.000000,-978.000000,,,,,,,
1591684251248.914800,820,0,0,0,439.000000,704.000000,747.000000,92.000000,-45.000000,-879.000000,,,,,,,
1591684251268.878400,821,0,0,0,362.000000,556.000000,520.000000,117.000000,-142.000000,-832.000000,,,,,,,
1591684251288.842000,822,0,0,0,314.000000,459.000000,435.000000,52.000000,-80.000000,-874.000000,,,,,,,
1591684251308.805700,823,0,0,0,283.000000,398.000000,371.000000,-354.000000,-617.000000,-1663.000000,,,,,,,
1591684251328.769300,824,0,0,0,271.000000,345.000000,352.000000,16.000000,64.000000,-812.000000,,,,,,,
1591684251348.732900,825,0,0,0,244.000000,332.000000,337.000000,458.000000,198.000000,-849.000000,,,,,,,
1591684251368.696500,826,0,0,0,254.000000,306.000000,347.000000,60.000000,30.000000,-890.000000,,,,,,,
1591684251388.660200,827,0,0,0,251.000000,275.000000,358.000000,-169.000000,-423.000000,-1130.000000,,,,,,,
1591684251408.623800,828,0,0,0,230.000000,269.000000,354.000000,-126.000000,55.000000,-899.000000,,,,,,,
1591684251428.587400,829,0,0,0,243.000000,256.000000,385.000000,-279.000000,-20.000000,-1042.000000,,,,,,,
1591684251448.551000,830,0,0,0,249.000000,256.000000,436.000000,53.000000,-176.000000,-888.000000,,,,,,,
1591684251468.514400,831,0,0,0,273.000000,264.000000,571.000000,89.000000,-23.000000,-1216.000000,,,,,,,
1591684251488.478000,832,0,0,0,323.000000,333.000000,765.000000,354.000000,135.000000,-852.000000,0.000000,17013,,,,,
1591684251508.441700,833,0,0,0,354.000000,404.000000,902.000000,75.000000,-10.000000,-926.000000,,,,,,,
1591684251528.405300,834,0,0,0,382.000000,481.000000,975.000000,-133.000000,14.000000,-1023.000000,,,,,,,
1591684251548.368900,835,0,0,0,399.000000,495.000000,918.000000,-302.000000,6.000000,-761.000000,,,,,,,
1591684251568.332500,836,0,0,0,379.000000,495.000000,888.000000,-251.000000,68.000000,-815.000000,,,,,,,
1591684251588.296100,837,0,0,0,355.000000,469.000000,823.000000,271.000000,66.000000,-668.000000,,,,,,,
1591684251608.259800,838,0,0,0,337.000000,446.000000,710.000000,170.000000,67.000000,-953.000000,,,,,,,
1591684251628.223400,839,0,0,0,326.000000,423.000000,656.000000,109.000000,-13.000000,-852.000000,,,,,,,
1591684251648.187000,840,0,0,0,325.000000,444.000000,756.000000,23.000000,-61.000000,-939.000000,,,,,,,
1591684251668.150600,841,0,0,0,359.000000,565.000000,933.000000,27.000000,-45.000000,-982.000000,,,,,,,
1591684251688.114300,842,0,0,0,426.000000,708.000000,1191.000000,10.000000,-47.000000,-962.000000,,,,,,,
1591684251708.077900,843,0,0,0,531.000000,1006.000000,1773.000000,-10.000000,-65.000000,-995.000000,,,,,,,
1591684251728.041500,844,0,0,0,782.000000,1693.000000,3049.000000,31.000000,-80.000000,-992.000000,,,,,,,
1591684251748.004900,845,0,0,0,1303.000000,2855.000000,5075.000000,-3.000000,-62.000000,-978.000000,,,,,,,
1591684251767.968500,846,0,0,0,2026.000000,4351.000000,7497.000000,10.000000,-48.000000,-969.000000,,,,,,,
1591684251787.932100,847,0,0,0,2612.000000,5273.000000,8445.000000,7.000000,-44.000000,-969.000000,,,,,,,
1591684251807.895800,848,0,0,0,2554.000000,4948.000000,7806.000000,28.000000,-49.000000,-970.000000,,,,,,,
1591684251827.859400,849,0,0,0,2297.000000,4517.000000,7307.000000,-42.000000,-120.000000,-1023.000000,,,,,,,
1591684251847.823000,850,0,0,0,2353.000000,4856.000000,8368.000000,-23.000000,-65.000000,-982.000000,,,,,,,
1591684251867.786600,851,0,0,0,2977.000000,6428.000000,11303.000000,-5.000000,76.000000,-881.000000,,,,,,,
1591684251887.750200,852,0,0,0,4140.000000,8828.000000,15582.000000,8.000000,63.000000,-881.000000,,,,,,,
1591684251907.713900,853,0,0,0,5643.000000,11592.000000,20093.000000,3.000000,-49.000000,-975.000000,,,,,,,
1591684251927.677500,854,0,0,0,7025.000000,14096.000000,24409.000000,-18.000000,-73.000000,-992.000000,,,,,,,
1591684251947.641100,855,0,0,0,8843.000000,17865.000000,32324.000000,-2.000000,-68.000000,-991.000000,,,,,,,
1591684251967.604700,856,0,0,0,13974.000000,28745.000000,49063.000000,19.000000,-43.000000,-963.000000,,,,,,,
1591684251987.568400,857,0,0,0,30748.000000,49642.000000,82293.000000,61.000000,-83.000000,-946.000000,,,,,,,
1591684252007.531700,858,0,0,0,29859.000000,69140.000000,106910.000000,-19.000000,-68.000000,-991.000000,,,,,,,
1591684252027.495400,859,0,0,0,31461.000000,69906.000000,107637.000000,-31.000000,-65.000000,-993.000000,,,,,,,
1591684252047.459000,860,0,0,0,32531.000000,70182.000000,107837.000000,4.000000,-35.000000,-976.000000,,,,,,,
1591684252067.422600,861,0,0,0,33047.000000,69931.000000,107583.000000,4.000000,-35.000000,-977.000000,,,,,,,
1591684252087.386200,862,0,0,0,33253.000000,69592.000000,107264.000000,5.000000,-30.000000,-973.000000,,,,,,,
1591684252107.349900,863,0,0,0,32887.000000,68802.000000,105155.000000,-10.000000,-68.000000,-979.000000,,,,,,,
1591684252127.313500,864,0,0,0,30495.000000,65062.000000,100806.000000,17.000000,-63.000000,-982.000000,,,,,,,
1591684252147.277100,865,0,0,0,32640.000000,62636.000000,99824.000000,-12.000000,-60.000000,-973.000000,,,,,,,
1591684252167.240700,866,0,0,0,31357.000000,46165.000000,81280.000000,-16.000000,-51.000000,-969.000000,,,,,,,
1591684252187.204300,867,0,0,0,19374.000000,32608.000000,48864.000000,20.000000,-49.000000,-959.000000,,,,,,,
1591684252207.168000,868,0,0,0,13069.000000,22427.000000,36771.000000,13.000000,-47.000000,-968.000000,,,,,,,
1591684252227.131600,869,0,0,0,11562.000000,21744.000000,38087.000000,-9.000000,-78.000000,-992.000000,,,,,,,
1591684252247.095200,870,0,0,0,13661.000000,26473.000000,48775.000000,-10.000000,-81.000000,-993.000000,,,,,,,
1591684252267.058800,871,0,0,0,20227.000000,39380.000000,66041.000000,12.000000,-49.000000,-960.000000,,,,,,,
1591684252287.022200,872,0,0,0,28899.000000,49633.000000,97915.000000,17.000000,-32.000000,-1013.000000,,,,,,,
1591684252306.985800,873,0,0,0,25249.000000,67599.000000,107570.000000,-21.000000,-59.000000,-995.000000,,,,,,,
1591684252326.949500,874,0,0,0,26739.000000,70338.000000,109705.000000,-5.000000,-53.000000,-984.000000,,,,,,,
1591684252346.913100,875,0,0,0,27757.000000,72933.000000,111372.000000,-3.000000,-39.000000,-987.000000,,,,,,,
1591684252366.876700,876,0,0,0,28499.000000,74347.000000,112209.000000,20.000000,-18.000000,-949.000000,,,,,,,
1591684252386.840300,877,0,0,0,29102.000000,75135.000000,112744.000000,12.000000,-24.000000,-973.000000,,,,,,,
1591684252406.804000,878,0,0,0,29616.000000,75773.000000,113092.000000,-9.000000,-34.000000,-998.000000,,,,,,,
1591684252426.767600,879,0,0,0,30142.000000,76374.000000,113467.000000,-10.000000,-35.000000,-996.000000,,,,,,,
1591684252446.731200,880,0,0,0,30540.000000,76892.000000,113837.000000,-2.000000,-19.000000,-973.000000,,,,,,,
1591684252466.694800,881,0,0,0,30870.000000,77373.000000,114121.000000,4.000000,-17.000000,-963.000000,,,,,,,
1591684252486.658400,882,0,0,0,31118.000000,77720.000000,114299.000000,10.000000,-10.000000,-970.000000,0.000000,18035,,,,,
1591684252506.622100,883,0,0,0,31363.000000,77994.000000,114464.000000,2.000000,-12.000000,-970.000000,,,,,,,
1591684252526.585700,884,0,0,0,31680.000000,78254.000000,114671.000000,-20.000000,-36.000000,-1005.000000,,,,,,,
1591684252546.549100,885,0,0,0,31930.000000,78414.000000,114782.000000,-20.000000,-39.000000,-1020.000000,,,,,,,
1591684252566.512700,886,0,0,0,32218.000000,78549.000000,114883.000000,36.000000,31.000000,-944.000000,,,,,,,
1591684252586.476300,887,0,0,0,32494.000000,78699.000000,115009.000000,57.000000,64.000000,-943.000000,,,,,,,
1591684252606.439900,888,0,0,0,32756.000000,78847.000000,115122.000000,-15.000000,-55.000000,-994.000000,,,,,,,
1591684252626.403600,889,0,0,0,33018.000000,78960.000000,115165.000000,-46.000000,-76.000000,-1036.000000,,,,,,,
1591684252646.367200,890,0,0,0,33240.000000,79005.000000,115182.000000,-11.000000,-20.000000,-984.000000,,,,,,,
1591684252666.330800,891,0,0,0,33443.000000,79050.000000,115192.000000,-3.000000,-10.000000,-976.000000,,,,,,,
1591684252686.294400,892,0,0,0,33654.000000,79079.000000,115251.000000,14.000000,5.000000,-967.000000,,,,,,,
1591684252706.258100,893,0,0,0,33831.000000,79147.000000,115318.000000,-27.000000,-38.000000,-1026.000000,,,,,,,
1591684252726.221700,894,0,0,0,33989.000000,79193.000000,115364.000000,-16.000000,-5.000000,-1007.000000,,,,,,,
1591684252746.185300,895,0,0,0,34130.000000,79209.000000,115345.000000,4.000000,-1.000000,-974.000000,,,,,,,
1591684252766.148900,896,0,0,0,34284.000000,79237.000000,115348.000000,14.000000,13.000000,-976.000000,,,,,,,
1591684252786.112500,897,0,0,0,34402.000000,79227.000000,115333.000000,17.000000,7.000000,-978.000000,,,,,,,
1591684252806.076200,898,0,0,0,34548.000000,79202.000000,115349.000000,14.000000,4.000000,-972.000000,,,,,,,
1591684252826.039600,899,0,0,0,34659.000000,79205.000000,115344.000000,-16.000000,-28.000000,-1008.000000,,,,,,,
1591684252846.003200,900,0,0,0,34773.000000,79205.000000,115394.000000,-29.000000,-29.000000,-1020.000000,,,,,,,
1591684252865.966800,901,0,0,0,34921.000000,79192.000000,115403.000000,21.000000,23.000000,-972.000000,,,,,,,
1591684252885.930400,902,0,0,0,34973.000000,79208.000000,115392.000000,21.000000,31.000000,-941.000000,,,,,,,
1591684252905.894000,903,0,0,0,35030.000000,79116.000000,115340.000000,23.000000,-16.000000,-1005.000000,,,,,,,
1591684252925.857700,904,0,0,0,35108.000000,79072.000000,115334.000000,44.000000,-35.000000,-1013.000000,,,,,,,
1591684252945.821300,905,0,0,0,35161.000000,79081.000000,115341.000000,54.000000,-17.000000,-974.000000,,,,,,,
1591684252965.784900,906,0,0,0,35222.000000,79129.000000,115318.000000,4.000000,3.000000,-950.000000,,,,,,,
1591684252985.748500,907,0,0,0,35321.000000,79198.000000,115367.000000,-4.000000,1.000000,-975.000000,,,,,,,
1591684253005.712200,908,0,0,0,35440.000000,79269.000000,115410.000000,-23.000000,-21.000000,-999.000000,,,,,,,
1591684253025.675800,909,0,0,0,35549.000000,79318.000000,115460.000000,-12.000000,-16.000000,-987.000000,,,,,,,
1591684253045.639400,910,0,0,0,35646.000000,79348.000000,115487.000000,1.000000,-2.000000,-976.000000,,,,,,,
1591684253065.603000,911,0,0,0,35779.000000,79378.000000,115533.000000,3.000000,-1.000000,-979.000000,,,,,,,
1591684253085.566700,912,0,0,0,35877.000000,79450.000000,115554.000000,1.000000,-2.000000,-981.000000,,,,,,,
1591684253105.530000,913,0,0,0,36005.000000,79420.000000,115539.000000,7.000000,-10.000000,-981.000000,,,,,,,
1591684253125.493700,914,0,0,0,36090.000000,79401.000000,115555.000000,-7.000000,-18.000000,-995.000000,,,,,,,
1591684253145.457300,915,0,0,0,36125.000000,79430.000000,115511.000000,-8.000000,-29.000000,-1002.000000,,,,,,,
1591684253165.420900,916,0,0,0,36122.000000,79370.000000,115476.000000,6.000000,-6.000000,-972.000000,,,,,,,
1591684253185.384500,917,0,0,0,36028.000000,79307.000000,115444.000000,6.000000,2.000000,-970.000000,,,,,,,
1591684253205.348100,918,0,0,0,35950.000000,79255.000000,115411.000000,1.000000,-22.000000,-994.000000,,,,,,,
1591684253225.311800,919,0,0,0,35935.000000,79297.000000,115458.000000,-9.000000,-22.000000,-1006.000000,,,,,,,
1591684253245.275400,920,0,0,0,35994.000000,79338.000000,115515.000000,-5.000000,-11.000000,-990.000000,,,,,,,
1591684253265.239000,921,0,0,0,36055.000000,79428.000000,115538.000000,9.000000,0.000000,-977.000000,,,,,,,
1591684253285.202600,922,0,0,0,36200.000000,79501.000000,115584.000000,9.000000,0.000000,-978.000000,,,,,,,
1591684253305.166300,923,0,0,0,36370.000000,79609.000000,115594.000000,-11.000000,-30.000000,-1000.000000,,,,,,,
1591684253325.129900,924,0,0,0,36510.000000,79691.000000,115655.000000,-6.000000,-21.000000,-1002.000000,,,,,,,
1591684253345.093500,925,0,0,0,36672.000000,79706.000000,115711.000000,10.000000,3.000000,-987.000000,,,,,,,
1591684253365.056900,926,0,0,0,36810.000000,79774.000000,115728.000000,22.000000,0.000000,-987.000000,,,,,,,
1591684253385.020500,927,0,0,0,36960.000000,79792.000000,115734.000000,28.000000,-1.000000,-982.000000,,,,,,,
1591684253404.984100,928,0,0,0,37065.000000,79852.000000,115785.000000,29.000000,4.000000,-978.000000,,,,,,,
1591684253424.947800,929,0,0,0,37194.000000,79870.000000,115802.000000,9.000000,-15.000000,-1002.000000,,,,,,,
1591684253444.911400,930,0,0,0,37292.000000,79878.000000,115779.000000,1.000000,-33.000000,-1020.000000,,,,,,,
1591684253464.875000,931,0,0,0,37397.000000,79885.000000,115845.000000,31.000000,-4.000000,-975.000000,,,,,,,
1591684253484.838600,932,0,0,0,37477.000000,79905.000000,115835.000000,34.000000,14.000000,-963.000000,0.000000,19057,,,,,
1591684253504.802200,933,0,0,0,37598.000000,79910.000000,115876.000000,30.000000,-8.000000,-986.000000,,,,,,,
1591684253524.765900,934,0,0,0,37721.000000,79965.000000,115918.000000,3.000000,-40.000000,-1008.000000,,,,,,,
1591684253544.729500,935,0,0,0,37847.000000,79984.000000,115924.000000,1.000000,-25.000000,-1003.000000,,,,,,,
1591684253564.693100,936,0,0,0,37946.000000,80038.000000,115959.000000,23.000000,13.000000,-963.000000,,,,,,,
1591684253584.656700,937,0,0,0,38051.000000,80075.000000,116008.000000,20.000000,14.000000,-966.000000,,,,,,,
1591684253604.620400,938,0,0,0,38162.000000,80091.000000,116043.000000,-13.000000,-28.000000,-1022.000000,,,,,,,
1591684253624.584000,939,0,0,0,38228.000000,80115.000000,116040.000000,-15.000000,-32.000000,-1015.000000,,,,,,,
1591684253644.547400,940,0,0,0,38330.000000,80155.000000,116034.000000,-1.000000,-17.000000,-982.000000,,,,,,,
1591684253664.511000,941,0,0,0,38428.000000,80196.000000,116109.000000,9.000000,-14.000000,-978.000000,,,,,,,
1591684253684.474600,942,0,0,0,38549.000000,80266.000000,116072.000000,20.000000,3.000000,-975.000000,,,,,,,
1591684253704.438200,943,0,0,0,38639.000000,80256.000000,116096.000000,20.000000,-1.000000,-964.000000,,,,,,,
1591684253724.401900,944,0,0,0,38730.000000,80258.000000,116102.000000,1.000000,-26.000000,-989.000000,,,,,,,
1591684253744.365500,945,0,0,0,38829.000000,80279.000000,116099.000000,10.000000,-6.000000,-986.000000,,,,,,,
1591684253764.329100,946,0,0,0,38913.000000,80255.000000,116156.000000,14.000000,0.000000,-977.000000,,,,,,,
1591684253784.292700,947,0,0,0,38989.000000,80281.000000,116145.000000,5.000000,3.000000,-976.000000,,,,,,,
1591684253804.256300,948,0,0,0,39036.000000,80271.000000,116174.000000,6.000000,-2.000000,-982.000000,,,,,,,
1591684253824.220000,949,0,0,0,39046.000000,80210.000000,116113.000000,-10.000000,-34.000000,-1010.000000,,,,,,,
1591684253844.183600,950,0,0,0,39038.000000,80161.000000,116048.000000,-28.000000,-32.000000,-1024.000000,,,,,,,
1591684253864.147200,951,0,0,0,39023.000000,80130.000000,116088.000000,11.000000,12.000000,-966.000000,,,,,,,
1591684253884.110800,952,0,0,0,39020.000000,80093.000000,116061.000000,15.000000,22.000000,-953.000000,,,,,,,
1591684253904.074200,953,0,0,0,39056.000000,80118.000000,116004.000000,-7.000000,-22.000000,-1010.000000,,,,,,,
1591684253924.037800,954,0,0,0,39120.000000,80107.000000,115997.000000,-1.000000,-29.000000,-1018.000000,,,,,,,
1591684253944.001500,955,0,0,0,39202.000000,80152.000000,115987.000000,15.000000,-8.000000,-1001.000000,,,,,,,
1591684253963.965100,956,0,0,0,39305.000000,80192.000000,115999.000000,17.000000,-9.000000,-987.000000,,,,,,,
1591684253983.928700,957,0,0,0,39365.000000,80228.000000,116024.000000,15.000000,4.000000,-978.000000,,,,,,,
1591684254003.892300,958,0,0,0,39476.000000,80239.000000,116041.000000,16.000000,2.000000,-979.000000,,,,,,,
1591684254023.856000,959,0,0,0,39501.000000,80198.000000,116033.000000,-7.000000,-22.000000,-1003.000000,,,,,,,
1591684254043.819600,960,0,0,0,39589.000000,80199.000000,116040.000000,-13.000000,-22.000000,-1013.000000,,,,,,,
1591684254063.783200,961,0,0,0,39640.000000,80210.000000,116015.000000,16.000000,1.000000,-984.000000,,,,,,,
1591684254083.746800,962,0,0,0,39682.000000,80207.000000,116045.000000,15.000000,9.000000,-972.000000,,,,,,,
1591684254103.710400,963,0,0,0,39739.000000,80227.000000,116044.000000,0.000000,0.000000,-985.000000,,,,,,,
1591684254123.674100,964,0,0,0,39806.000000,80238.000000,116089.000000,-24.000000,-26.000000,-1011.000000,,,,,,,
1591684254143.637700,965,0,0,0,39853.000000,80256.000000,116083.000000,-31.000000,-35.000000,-1016.000000,,,,,,,
1591684254163.601300,966,0,0,0,39894.000000,80250.000000,116068.000000,16.000000,13.000000,-968.000000,,,,,,,
1591684254183.564700,967,0,0,0,39966.000000,80257.000000,116113.000000,20.000000,12.000000,-963.000000,,,,,,,
1591684254203.528300,968,0,0,0,40039.000000,80260.000000,116093.000000,-10.000000,-20.000000,-1002.000000,,,,,,,
1591684254223.491900,969,0,0,0,40124.000000,80289.000000,116122.000000,-22.000000,-37.000000,-1016.000000,,,,,,,
1591684254243.455600,970,0,0,0,40180.000000,80350.000000,116135.000000,-6.000000,-26.000000,-999.000000,,,,,,,
1591684254263.419200,971,0,0,0,40284.000000,80409.000000,116109.000000,3.000000,-4.000000,-989.000000,,,,,,,
1591684254283.382800,972,0,0,0,40356.000000,80458.000000,116131.000000,14.000000,12.000000,-969.000000,,,,,,,
1591684254303.346400,973,0,0,0,40426.000000,80450.000000,116161.000000,-13.000000,-31.000000,-1021.000000,,,,,,,
1591684254323.310100,974,0,0,0,40517.000000,80451.000000,116080.000000,-10.000000,-25.000000,-1013.000000,,,,,,,
1591684254343.273700,975,0,0,0,40568.000000,80452.000000,116150.000000,0.000000,-9.000000,-983.000000,,,,,,,
1591684254363.237300,976,0,0,0,40625.000000,80495.000000,116179.000000,0.000000,-4.000000,-985.000000,,,,,,,
1591684254383.200900,977,0,0,0,40692.000000,80497.000000,116164.000000,13.000000,8.000000,-972.000000,,,,,,,
1591684254403.164600,978,0,0,0,40782.000000,80494.000000,116137.000000,7.000000,0.000000,-976.000000,,,,,,,
1591684254423.128200,979,0,0,0,40829.000000,80483.000000,116157.000000,-17.000000,-19.000000,-1006.000000,,,,,,,
1591684254443.091600,980,0,0,0,40881.000000,80472.000000,116163.000000,-21.000000,-37.000000,-1018.000000,,,,,,,
1591684254463.055200,981,0,0,0,40927.000000,80463.000000,116156.000000,4.000000,9.000000,-978.000000,,,,,,,
1591684254483.018800,982,0,0,0,40971.000000,80421.000000,116124.000000,13.000000,11.000000,-971.000000,0.000000,20079,,,,,
1591684254502.982400,983,0,0,0,40981.000000,80408.000000,116073.000000,0.000000,5.000000,-989.000000,,,,,,,
1591684254522.946000,984,0,0,0,40940.000000,80359.000000,116048.000000,-27.000000,-29.000000,-1012.000000,,,,,,,
1591684254542.909700,985,0,0,0,40894.000000,80326.000000,116032.000000,-26.000000,-40.000000,-1012.000000,,,,,,,
1591684254562.873300,986,0,0,0,40888.000000,80300.000000,116053.000000,16.000000,15.000000,-954.000000,,,,,,,
1591684254582.836900,987,0,0,0,40910.000000,80340.000000,116045.000000,20.000000,11.000000,-962.000000,,,,,,,
1591684254602.800500,988,0,0,0,40941.000000,80313.000000,116037.000000,-15.000000,-21.000000,-1008.000000,,,,,,,
1591684254622.764200,989,0,0,0,40986.000000,80318.000000,116031.000000,-8.000000,-21.000000,-1008.000000,,,,,,,
1591684254642.727800,990,0,0,0,41045.000000,80328.000000,116003.000000,3.000000,-12.000000,-994.000000,,,,,,,
1591684254662.691400,991,0,0,0,41079.000000,80333.000000,116035.000000,10.000000,-4.000000,-984.000000,,,,,,,
1591684254682.655000,992,0,0,0,41138.000000,80347.000000,116048.000000,14.000000,3.000000,-971.000000,,,,,,,
1591684254702.618700,993,0,0,0,41204.000000,80343.000000,116093.000000,8.000000,-1.000000,-971.000000,,,,,,,
1591684254722.582000,994,0,0,0,41245.000000,80295.000000,116098.000000,-11.000000,-22.000000,-1006.000000,,,,,,,
1591684254742.545700,995,0,0,0,41259.000000,80264.000000,116061.000000,-9.000000,-21.000000,-1013.000000,,,,,,,
1591684254762.509300,996,0,0,0,41284.000000,80298.000000,116070.000000,8.000000,0.000000,-979.000000,,,,,,,
1591684254782.472900,997,0,0,0,41325.000000,80294.000000,116063.000000,6.000000,0.000000,-982.000000,,,,,,,
1591684254802.436500,998,0,0,0,41363.000000,80318.000000,116071.000000,4.000000,-9.000000,-981.000000,,,,,,,
1591684254822.400100,999,0,0,0,41362.000000,80309.000000,116023.000000,-21.000000,-33.000000,-1012.000000,,,,,,,
1591684254842.363800,1000,0,0,0,41413.000000,80312.000000,116050.000000,-23.000000,-35.000000,-1017.000000,,,,,,,
1591684254862.327400,1001,0,0,0,41452.000000,80337.000000,116009.000000,20.000000,4.000000,-970.000000,,,,,,,
1591684254882.291000,1002,0,0,0,41500.000000,80354.000000,116037.000000,21.000000,14.000000,-965.000000,,,,,,,
1591684254902.254600,1003,0,0,0,41570.000000,80374.000000,116010.000000,-9.000000,-19.000000,-1000.000000,,,,,,,
1591684254922.218300,1004,0,0,0,41620.000000,80367.000000,116051.000000,-13.000000,-34.000000,-1016.000000,,,,,,,
1591684254942.181900,1005,0,0,0,41649.000000,80375.000000,116070.000000,2.000000,-21.000000,-996.000000,,,,,,,
1591684254962.145500,1006,0,0,0,41732.000000,80372.000000,116063.000000,8.000000,-10.000000,-990.000000,,,,,,,
1591684254982.109100,1007,0,0,0,41752.000000,80391.000000,116086.000000,19.000000,4.000000,-970.000000,,,,,,,
1591684255002.072500,1008,0,0,0,41833.000000,80371.000000,116067.000000,18.000000,6.000000,-972.000000,,,,,,,
1591684255022.036100,1009,0,0,0,41856.000000,80358.000000,116091.000000,-11.000000,-20.000000,-1004.000000,,,,,,,
1591684255041.999800,1010,0,0,0,41885.000000,80340.000000,116089.000000,-24.000000,-23.000000,-1003.000000,,,,,,,
1591684255061.963400,1011,0,0,0,41918.000000,80340.000000,116098.000000,0.000000,1.000000,-975.000000,,,,,,,
1591684255081.927000,1012,0,0,0,41906.000000,80339.000000,116047.000000,7.000000,1.000000,-968.000000,,,,,,,
1591684255101.890600,1013,0,0,0,41936.000000,80275.000000,116024.000000,3.000000,0.000000,-979.000000,,,,,,,
1591684255121.854200,1014,0,0,0,41963.000000,80270.000000,116021.000000,-20.000000,-40.000000,-1011.000000,,,,,,,
1591684255141.817900,1015,0,0,0,41963.000000,80224.000000,115971.000000,-32.000000,-37.000000,-1021.000000,,,,,,,
1591684255161.781500,1016,0,0,0,41934.000000,80163.000000,115943.000000,16.000000,11.000000,-963.000000,,,,,,,
1591684255181.745100,1017,0,0,0,41844.000000,80068.000000,115885.000000,27.000000,15.000000,-965.000000,,,,,,,
1591684255201.708700,1018,0,0,0,41671.000000,79967.000000,115831.000000,-16.000000,-24.000000,-1007.000000,,,,,,,
1591684255221.672400,1019,0,0,0,41473.000000,79893.000000,115788.000000,-19.000000,-37.000000,-1019.000000,,,,,,,
1591684255241.636000,1020,0,0,0,41278.000000,79846.000000,115739.000000,-15.000000,-20.000000,-996.000000,,,,,,,
1591684255261.599400,1021,0,0,0,41185.000000,79882.000000,115739.000000,-3.000000,-5.000000,-982.000000,,,,,,,
1591684255281.563000,1022,0,0,0,41149.000000,79863.000000,115716.000000,9.000000,7.000000,-974.000000,,,,,,,
1591684255301.526600,1023,0,0,0,41087.000000,79829.000000,115714.000000,16.000000,6.000000,-968.000000,,,,,,,
1591684255321.490200,1024,0,0,0,41050.000000,79834.000000,115688.000000,-18.000000,-31.000000,-1005.000000,,,,,,,
1591684255341.453900,1025,0,0,0,41008.000000,79785.000000,115643.000000,-20.000000,-24.000000,-1003.000000,,,,,,,
1591684255361.417500,1026,0,0,0,40969.000000,79757.000000,115648.000000,2.000000,-1.000000,-983.000000,,,,,,,
1591684255381.381100,1027,0,0,0,40931.000000,79764.000000,115654.000000,8.000000,5.000000,-980.000000,,,,,,,
1591684255401.344700,1028,0,0,0,40903.000000,79764.000000,115603.000000,10.000000,2.000000,-978.000000,,,,,,,
1591684255421.308300,1029,0,0,0,40902.000000,79735.000000,115645.000000,-14.000000,-35.000000,-1022.000000,,,,,,,
1591684255441.272000,1030,0,0,0,40846.000000,79735.000000,115615.000000,-35.000000,-44.000000,-1019.000000,,,,,,,
1591684255461.235600,1031,0,0,0,40819.000000,79713.000000,115638.000000,13.000000,8.000000,-951.000000,,,,,,,
1591684255481.199200,1032,0,0,0,40739.000000,79697.000000,115604.000000,17.000000,10.000000,-953.000000,0.000000,21101,,,,,
1591684255501.162800,1033,0,0,0,40686.000000,79721.000000,115574.000000,-10.000000,-20.000000,-997.000000,,,,,,,
1591684255521.126500,1034,0,0,0,40673.000000,79706.000000,115574.000000,-22.000000,-33.000000,-1023.000000,,,,,,,
1591684255541.089800,1035,0,0,0,40684.000000,79734.000000,115606.000000,-17.000000,-22.000000,-1009.000000,,,,,,,
1591684255561.053500,1036,0,0,0,40682.000000,79715.000000,115622.000000,6.000000,-10.000000,-1002.000000,,,,,,,
1591684255581.017100,1037,0,0,0,40682.000000,79739.000000,115603.000000,24.000000,13.000000,-965.000000,,,,,,,
1591684255600.980700,1038,0,0,0,40715.000000,79728.000000,115607.000000,8.000000,1.000000,-967.000000,,,,,,,
1591684255620.944300,1039,0,0,0,40732.000000,79741.000000,115589.000000,-22.000000,-31.000000,-1016.000000,,,,,,,
1591684255640.908000,1040,0,0,0,40726.000000,79723.000000,115618.000000,13.000000,-1.000000,-987.000000,,,,,,,
1591684255660.871600,1041,0,0,0,40754.000000,79717.000000,115592.000000,5.000000,-8.000000,-985.000000,,,,,,,
1591684255680.835200,1042,0,0,0,40752.000000,79734.000000,115600.000000,16.000000,6.000000,-969.000000,,,,,,,
1591684255700.798800,1043,0,0,0,40751.000000,79730.000000,115542.000000,5.000000,1.000000,-967.000000,,,,,,,
1591684255720.762500,1044,0,0,0,40755.000000,79757.000000,115577.000000,-16.000000,-27.000000,-1014.000000,,,,,,,
1591684255740.726100,1045,0,0,0,40800.000000,79767.000000,115616.000000,-25.000000,-36.000000,-1011.000000,,,,,,,
1591684255760.689700,1046,0,0,0,40798.000000,79733.000000,115593.000000,-2.000000,6.000000,-977.000000,,,,,,,
1591684255780.653300,1047,0,0,0,40832.000000,79760.000000,115595.000000,12.000000,11.000000,-963.000000,,,,,,,
1591684255800.616700,1048,0,0,0,40828.000000,79776.000000,115591.000000,-5.000000,1.000000,-974.000000,,,,,,,
1591684255820.580300,1049,0,0,0,40884.000000,79809.000000,115588.000000,-10.000000,-13.000000,-992.000000,,,,,,,
1591684255840.543900,1050,0,0,0,40886.000000,79783.000000,115587.000000,-27.000000,-43.000000,-1019.000000,,,,,,,
1591684255860.507600,1051,0,0,0,40832.000000,79728.000000,115549.000000,14.000000,2.000000,-959.000000,,,,,,,
1591684255880.471200,1052,0,0,0,40660.000000,79637.000000,115501.000000,21.000000,16.000000,-960.000000,,,,,,,
1591684255900.434800,1053,0,0,0,40426.000000,79567.000000,115433.000000,-13.000000,-10.000000,-994.000000,,,,,,,
1591684255920.398400,1054,0,0,0,40209.000000,79527.000000,115360.000000,-28.000000,-38.000000,-1015.000000,,,,,,,
1591684255940.362100,1055,0,0,0,39973.000000,79490.000000,115382.000000,-12.000000,-23.000000,-1004.000000,,,,,,,
1591684255960.325700,1056,0,0,0,39887.000000,79503.000000,115354.000000,-5.000000,-12.000000,-979.000000,,,,,,,
1591684255980.289300,1057,0,0,0,39821.000000,79531.000000,115322.000000,20.000000,14.000000,-966.000000,,,,,,,
1591684256000.252900,1058,0,0,0,39804.000000,79501.000000,115324.000000,15.000000,2.000000,-965.000000,,,,,,,
1591684256020.216600,1059,0,0,0,39766.000000,79510.000000,115315.000000,-19.000000,-42.000000,-1010.000000,,,,,,,
1591684256040.180200,1060,0,0,0,39723.000000,79497.000000,115344.000000,-5.000000,-6.000000,-978.000000,,,,,,,
1591684256060.143800,1061,0,0,0,39687.000000,79486.000000,115319.000000,0.000000,-9.000000,-971.000000,,,,,,,
1591684256080.107200,1062,0,0,0,39680.000000,79473.000000,115307.000000,9.000000,7.000000,-958.000000,,,,,,,
1591684256100.070800,1063,0,0,0,39643.000000,79458.000000,115299.000000,16.000000,-2.000000,-979.000000,,,,,,,
1591684256120.034400,1064,0,0,0,39592.000000,79427.000000,115262.000000,-5.000000,-40.000000,-1004.000000,,,,,,,
1591684256139.998000,1065,0,0,0,39507.000000,79438.000000,115250.000000,-21.000000,-32.000000,-1016.000000,,,,,,,
1591684256159.961700,1066,0,0,0,39423.000000,79380.000000,115287.000000,-1.000000,-8.000000,-979.000000,,,,,,,
1591684256179.925300,1067,0,0,0,39347.000000,79366.000000,115234.000000,5.000000,2.000000,-968.000000,,,,,,,
1591684256199.888900,1068,0,0,0,39277.000000,79397.000000,115228.000000,0.000000,0.000000,-984.000000,,,,,,,
1591684256219.852500,1069,0,0,0,39270.000000,79397.000000,115247.000000,-6.000000,-14.000000,-997.000000,,,,,,,
1591684256239.816200,1070,0,0,0,39256.000000,79390.000000,115274.000000,-30.000000,-36.000000,-1021.000000,,,,,,,
1591684256259.779800,1071,0,0,0,39263.000000,79378.000000,115248.000000,13.000000,1.000000,-963.000000,,,,,,,
1591684256279.743400,1072,0,0,0,39280.000000,79363.000000,115224.000000,18.000000,9.000000,-968.000000,,,,,,,
1591684256299.707000,1073,0,0,0,39290.000000,79411.000000,115225.000000,-13.000000,-24.000000,-1003.000000,,,,,,,
1591684256319.670700,1074,0,0,0,39311.000000,79407.000000,115230.000000,-26.000000,-35.000000,-1009.000000,,,,,,,
1591684256339.634000,1075,0,0,0,39302.000000,79430.000000,115217.000000,-12.000000,-30.000000,-998.000000,,,,,,,
1591684256359.597700,1076,0,0,0,39278.000000,79397.000000,115206.000000,1.000000,-14.000000,-988.000000,,,,,,,
